timestamp,accel_x,accel_y,accel_z,gyro_x,gyro_y,gyro_z,rotation_x,rotation_y,rotation_z,rotation_w
1730745223863,-0.18116367,2.877321,-9.713796,0,0,0,0,0,0,0
1730745223866,-0.28656793,2.830608,-9.667082,0,0,0,0,0,0,0
1730745223869,-0.28656793,2.830608,-9.667082,-0.070249505,0.06994407,-0.047036625,0,0,0,0
1730745223901,0.102709234,2.662919,-9.449087,-0.070249505,0.06994407,-0.047036625,0,0,0,0
1730745223903,0.102709234,2.662919,-9.449087,-0.070249505,0.06994407,-0.047036625,0,0,0,0
1730745223906,0.102709234,2.662919,-9.449087,-0.070249505,0.06994407,-0.047036625,0,0,0,0
1730745223909,0.102709234,2.662919,-9.449087,-0.070249505,0.06994407,-0.047036625,0,0,0,0
1730745223914,0.102709234,2.662919,-9.449087,-0.070249505,0.06994407,-0.047036625,0,0,0,0
1730745223916,0.102709234,2.662919,-9.449087,-0.070249505,0.06994407,-0.047036625,0,0,0,0
1730745223919,0.15181804,2.738379,-9.468251,-0.070249505,0.06994407,-0.047036625,0,0,0,0
1730745223921,0.14103806,2.7192144,-9.534129,-0.070249505,0.06994407,-0.047036625,0,0,0,0
1730745224268,0.084742606,2.79707,-9.572457,-0.070249505,0.06994407,-0.047036625,0,0,0,0
1730745224271,0.01886493,2.8174322,-9.620369,-0.070249505,0.06994407,-0.047036625,0,0,0,0
1730745224273,-0.07695711,2.7695212,-9.619171,-0.070249505,0.06994407,-0.047036625,0,0,0,0
1730745224276,-0.12606591,2.6844792,-9.601204,-0.070249505,0.06994407,-0.047036625,0,0,0,0
1730745224279,-0.15361476,2.7132258,-9.619171,-0.070249505,0.06994407,-0.047036625,0,0,0,0
1730745224281,-0.16319692,2.7132258,-9.572457,-0.070249505,0.06994407,-0.047036625,0,0,0,0
1730745224284,-0.07815492,2.6736991,-9.50658,-0.070249505,0.06994407,-0.047036625,0,0,0,0
1730745224286,0.02605158,2.653337,-9.516162,-0.070249505,0.06994407,-0.047036625,0,0,0,0
1730745224289,0.02605158,2.653337,-9.516162,-0.3390302,0.06887506,-0.16447547,0,0,0,0
1730745224291,0.02605158,2.653337,-9.516162,-0.3390302,0.06887506,-0.16447547,0,0,0,0
1730745224293,0.02605158,2.653337,-9.516162,-0.3390302,0.06887506,-0.16447547,0.78369355,0.09048466,-0.016050274,-0.6143121
1730745224295,0.1314559,2.6521392,-9.572457,-0.3390302,0.06887506,-0.16447547,0.78369355,0.09048466,-0.016050274,-0.6143121
1730745224298,0.16858691,2.5850637,-9.638335,-0.3390302,0.06887506,-0.16447547,0.78369355,0.09048466,-0.016050274,-0.6143121
1730745224302,0.10031372,2.4892416,-9.7149935,-0.3390302,0.06887506,-0.16447547,0.78369355,0.09048466,-0.016050274,-0.6143121
1730745224305,-0.09133041,2.3574862,-9.790453,-0.3390302,0.06887506,-0.16447547,0.78369355,0.09048466,-0.016050274,-0.6143121
1730745224308,-0.09133041,2.3574862,-9.790453,-0.36819902,0.07284568,-0.17027868,0.78369355,0.09048466,-0.016050274,-0.6143121
1730745224310,-0.09133041,2.3574862,-9.790453,-0.36819902,0.07284568,-0.17027868,0.78369355,0.09048466,-0.016050274,-0.6143121
1730745224313,-0.09133041,2.3574862,-9.790453,-0.39477167,0.082924955,-0.17501289,0.78369355,0.09048466,-0.016050274,-0.6143121
1730745224315,-0.09133041,2.3574862,-9.790453,-0.39477167,0.082924955,-0.17501289,0.78369355,0.09048466,-0.016050274,-0.6143121
1730745224318,-0.09133041,2.3574862,-9.790453,-0.4202753,0.10048734,-0.17867808,0.78369355,0.09048466,-0.016050274,-0.6143121
1730745224321,-0.09133041,2.3574862,-9.790453,-0.4202753,0.10048734,-0.17867808,0.78369355,0.09048466,-0.016050274,-0.6143121
1730745224323,-0.09133041,2.3574862,-9.790453,-0.44318274,0.12156218,-0.18096884,0.78369355,0.09048466,-0.016050274,-0.6143121
1730745224326,-0.09133041,2.3574862,-9.790453,-0.44318274,0.12156218,-0.18096884,0.78369355,0.09048466,-0.016050274,-0.6143121
1730745224329,-0.09133041,2.3574862,-9.790453,-0.46120325,0.14767668,-0.18234327,0.78369355,0.09048466,-0.016050274,-0.6143121
1730745224331,-0.09133041,2.3574862,-9.790453,-0.46120325,0.14767668,-0.18234327,0.78369355,0.09048466,-0.016050274,-0.6143121
1730745224334,-0.09133041,2.3574862,-9.790453,-0.4708244,0.17730364,-0.18616119,0.78369355,0.09048466,-0.016050274,-0.6143121
1730745224336,-0.09133041,2.3574862,-9.790453,-0.4708244,0.17730364,-0.18616119,0.78369355,0.09048466,-0.016050274,-0.6143121
1730745224341,-0.09133041,2.3574862,-9.790453,-0.47311515,0.20204368,-0.19013181,0.78369355,0.09048466,-0.016050274,-0.6143121
1730745224343,-0.09133041,2.3574862,-9.790453,-0.47311515,0.20204368,-0.19013181,0.78369355,0.09048466,-0.016050274,-0.6143121
1730745224346,-0.09133041,2.3574862,-9.790453,-0.47051895,0.22174409,-0.19761491,0.78369355,0.09048466,-0.016050274,-0.6143121
1730745224348,-0.09133041,2.3574862,-9.790453,-0.47051895,0.22174409,-0.19761491,0.78369355,0.09048466,-0.016050274,-0.6143121
1730745224350,-0.09133041,2.3574862,-9.790453,-0.47051895,0.22174409,-0.19761491,0.7829833,0.08806432,-0.013024226,-0.6156398
1730745224351,-0.09133041,2.3574862,-9.790453,-0.47051895,0.22174409,-0.19761491,0.7822568,0.08541509,-0.009460517,-0.6170001
1730745224353,-0.09133041,2.3574862,-9.790453,-0.47051895,0.22174409,-0.19761491,0.7815188,0.08275236,-0.0052773003,-0.6183467
1730745224355,-0.09133041,2.3574862,-9.790453,-0.47051895,0.22174409,-0.19761491,0.78071994,0.080310695,-0.0006083367,-0.61969864
1730745224357,-0.32968783,2.321553,-9.771289,-0.47051895,0.22174409,-0.19761491,0.78071994,0.080310695,-0.0006083367,-0.61969864
1730745224360,-0.4350921,2.3035865,-9.647918,-0.47051895,0.22174409,-0.19761491,0.78071994,0.080310695,-0.0006083367,-0.61969864
1730745224362,-0.4638387,2.2173467,-9.600007,-0.47051895,0.22174409,-0.19761491,0.78071994,0.080310695,-0.0006083367,-0.61969864
1730745224365,-0.33328116,2.0233068,-9.572457,-0.47051895,0.22174409,-0.19761491,0.78071994,0.080310695,-0.0006083367,-0.61969864
1730745224367,-0.33328116,2.0233068,-9.572457,-0.46685377,0.23289238,-0.205098,0.78071994,0.080310695,-0.0006083367,-0.61969864
1730745224370,-0.33328116,2.0233068,-9.572457,-0.46685377,0.23289238,-0.205098,0.78071994,0.080310695,-0.0006083367,-0.61969864
1730745224372,-0.33328116,2.0233068,-9.572457,-0.46578476,0.23289238,-0.21609358,0.78071994,0.080310695,-0.0006083367,-0.61969864
1730745224375,-0.33328116,2.0233068,-9.572457,-0.46578476,0.23289238,-0.21609358,0.78071994,0.080310695,-0.0006083367,-0.61969864
1730745224377,-0.33328116,2.0233068,-9.572457,-0.46822822,0.22418754,-0.22693644,0.78071994,0.080310695,-0.0006083367,-0.61969864
1730745224382,-0.33328116,2.0233068,-9.572457,-0.46822822,0.22418754,-0.22693644,0.78071994,0.080310695,-0.0006083367,-0.61969864
1730745224384,-0.33328116,2.0233068,-9.572457,-0.4720461,0.20830505,-0.23900102,0.78071994,0.080310695,-0.0006083367,-0.61969864
1730745224386,-0.33328116,2.0233068,-9.572457,-0.4720461,0.20830505,-0.23900102,0.78071994,0.080310695,-0.0006083367,-0.61969864
1730745224389,-0.33328116,2.0233068,-9.572457,-0.4746423,0.1910481,-0.24740042,0.78071994,0.080310695,-0.0006083367,-0.61969864
1730745224391,-0.33328116,2.0233068,-9.572457,-0.4746423,0.1910481,-0.24740042,0.78071994,0.080310695,-0.0006083367,-0.61969864
1730745224393,-0.33328116,2.0233068,-9.572457,-0.4699081,0.17623462,-0.25473082,0.78071994,0.080310695,-0.0006083367,-0.61969864
1730745224396,-0.33328116,2.0233068,-9.572457,-0.4699081,0.17623462,-0.25473082,0.78071994,0.080310695,-0.0006083367,-0.61969864
1730745224398,-0.33328116,2.0233068,-9.572457,-0.4615087,0.16508633,-0.25961772,0.78071994,0.080310695,-0.0006083367,-0.61969864
1730745224400,-0.33328116,2.0233068,-9.572457,-0.4615087,0.16508633,-0.25961772,0.78071994,0.080310695,-0.0006083367,-0.61969864
1730745224403,-0.33328116,2.0233068,-9.572457,-0.44944412,0.15760323,-0.26816985,0.78071994,0.080310695,-0.0006083367,-0.61969864
1730745224405,-0.33328116,2.0233068,-9.572457,-0.44944412,0.15760323,-0.26816985,0.78071994,0.080310695,-0.0006083367,-0.61969864
1730745224406,-0.33328116,2.0233068,-9.572457,-0.44944412,0.15760323,-0.26816985,0.7798005,0.07807521,0.0042659123,-0.62112594
1730745224408,-0.33328116,2.0233068,-9.572457,-0.44944412,0.15760323,-0.26816985,0.7787251,0.07577261,0.00910055,-0.6227062
1730745224409,-0.33328116,2.0233068,-9.572457,-0.44944412,0.15760323,-0.26816985,0.7775071,0.07324702,0.013739077,-0.6244428
1730745224411,-0.33328116,2.0233068,-9.572457,-0.44944412,0.15760323,-0.26816985,0.7761737,0.070658095,0.018111845,-0.62628573
1730745224413,-0.28656793,1.9274848,-9.524547,-0.44944412,0.15760323,-0.26816985,0.7761737,0.070658095,0.018111845,-0.62628573
1730745224416,-0.20032799,1.9933624,-9.487415,-0.44944412,0.15760323,-0.26816985,0.7761737,0.070658095,0.018111845,-0.62628573
1730745224419,-0.23745906,2.0903823,-9.572457,-0.44944412,0.15760323,-0.26816985,0.7761737,0.070658095,0.018111845,-0.62628573
1730745224422,-0.30213892,2.2053688,-9.73296,-0.44944412,0.15760323,-0.26816985,0.7761737,0.070658095,0.018111845,-0.62628573
1730745224424,-0.30213892,2.2053688,-9.73296,-0.43386704,0.1525636,-0.27931812,0.7761737,0.070658095,0.018111845,-0.62628573
1730745224427,-0.30213892,2.2053688,-9.73296,-0.43386704,0.1525636,-0.27931812,0.7761737,0.070658095,0.018111845,-0.62628573
1730745224430,-0.30213892,2.2053688,-9.73296,-0.41813725,0.14874569,-0.2939789,0.7761737,0.070658095,0.018111845,-0.62628573
1730745224432,-0.30213892,2.2053688,-9.73296,-0.41813725,0.14874569,-0.2939789,0.7761737,0.070658095,0.018111845,-0.62628573
1730745224434,-0.30213892,2.2053688,-9.73296,-0.4025602,0.14248432,-0.30757064,0.7761737,0.070658095,0.018111845,-0.62628573
1730745224437,-0.30213892,2.2053688,-9.73296,-0.4025602,0.14248432,-0.30757064,0.7761737,0.070658095,0.018111845,-0.62628573
1730745224439,-0.30213892,2.2053688,-9.73296,-0.39293906,0.1386664,-0.31749722,0.7761737,0.070658095,0.018111845,-0.62628573
1730745224441,-0.30213892,2.2053688,-9.73296,-0.39293906,0.1386664,-0.31749722,0.7761737,0.070658095,0.018111845,-0.62628573
1730745224443,-0.30213892,2.2053688,-9.73296,-0.38927388,0.1386664,-0.32238412,0.7761737,0.070658095,0.018111845,-0.62628573
1730745224446,-0.30213892,2.2053688,-9.73296,-0.38927388,0.1386664,-0.32238412,0.7761737,0.070658095,0.018111845,-0.62628573
1730745224448,-0.30213892,2.2053688,-9.73296,-0.39660427,0.13255776,-0.31978795,0.7761737,0.070658095,0.018111845,-0.62628573
1730745224450,-0.30213892,2.2053688,-9.73296,-0.39660427,0.13255776,-0.31978795,0.7761737,0.070658095,0.018111845,-0.62628573
1730745224452,-0.30213892,2.2053688,-9.73296,-0.41706824,0.13271047,-0.3098614,0.7761737,0.070658095,0.018111845,-0.62628573
1730745224454,-0.30213892,2.2053688,-9.73296,-0.41706824,0.13271047,-0.3098614,0.7761737,0.070658095,0.018111845,-0.62628573
1730745224457,-0.30213892,2.2053688,-9.73296,-0.44623706,0.1328632,-0.29611692,0.7761737,0.070658095,0.018111845,-0.62628573
1730745224461,-0.30213892,2.2053688,-9.73296,-0.44623706,0.1328632,-0.29611692,0.7761737,0.070658095,0.018111845,-0.62628573
1730745224462,-0.30213892,2.2053688,-9.73296,-0.44623706,0.1328632,-0.29611692,0.7746746,0.0681922,0.02222432,-0.6282797
1730745224463,-0.30213892,2.2053688,-9.73296,-0.44623706,0.1328632,-0.29611692,0.7729713,0.065883525,0.026091032,-0.6304713
1730745224465,-0.30213892,2.2053688,-9.73296,-0.44623706,0.1328632,-0.29611692,0.7711566,0.06361648,0.029852724,-0.63275534
1730745224466,-0.30213892,2.2053688,-9.73296,-0.44623706,0.1328632,-0.29611692,0.7694165,0.061106727,0.033754833,-0.6349212
1730745224468,-0.37879658,2.17782,-9.808419,-0.44623706,0.1328632,-0.29611692,0.7694165,0.061106727,0.033754833,-0.6349212
1730745224470,-0.40035653,1.9670115,-9.827584,-0.44623706,0.1328632,-0.29611692,0.7694165,0.061106727,0.033754833,-0.6349212
1730745224473,-0.43269658,1.5921075,-9.73296,-0.44623706,0.1328632,-0.29611692,0.7694165,0.061106727,0.033754833,-0.6349212
1730745224475,-0.5021676,1.3250035,-9.534129,-0.44623706,0.1328632,-0.29611692,0.7694165,0.061106727,0.033754833,-0.6349212
1730745224477,-0.5021676,1.3250035,-9.534129,-0.48365256,0.12950343,-0.27977628,0.7694165,0.061106727,0.033754833,-0.6349212
1730745224480,-0.5021676,1.3250035,-9.534129,-0.48365256,0.12950343,-0.27977628,0.7694165,0.061106727,0.033754833,-0.6349212
1730745224482,-0.5021676,1.3250035,-9.534129,-0.52855116,0.12996158,-0.26099217,0.7694165,0.061106727,0.033754833,-0.6349212
1730745224484,-0.5021676,1.3250035,-9.534129,-0.52855116,0.12996158,-0.26099217,0.7694165,0.061106727,0.033754833,-0.6349212
1730745224486,-0.5021676,1.3250035,-9.534129,-0.57803124,0.13164146,-0.2434298,0.7694165,0.061106727,0.033754833,-0.6349212
1730745224488,-0.5021676,1.3250035,-9.534129,-0.57803124,0.13164146,-0.2434298,0.7694165,0.061106727,0.033754833,-0.6349212
1730745224490,-0.5021676,1.3250035,-9.534129,-0.61926466,0.13439035,-0.22968534,0.7694165,0.061106727,0.033754833,-0.6349212
1730745224492,-0.5021676,1.3250035,-9.534129,-0.61926466,0.13439035,-0.22968534,0.7694165,0.061106727,0.033754833,-0.6349212
1730745224494,-0.5021676,1.3250035,-9.534129,-0.647059,0.14080444,-0.21838433,0.7694165,0.061106727,0.033754833,-0.6349212
1730745224496,-0.5021676,1.3250035,-9.534129,-0.647059,0.14080444,-0.21838433,0.7694165,0.061106727,0.033754833,-0.6349212
1730745224498,-0.5021676,1.3250035,-9.534129,-0.647059,0.14080444,-0.21838433,0.7694165,0.061106727,0.033754833,-0.6349212
1730745224502,-0.5021676,1.3250035,-9.534129,-0.65668017,0.14462234,-0.21594086,0.7694165,0.061106727,0.033754833,-0.6349212
1730745224504,-0.5021676,1.3250035,-9.534129,-0.64461553,0.14569137,-0.21853705,0.7694165,0.061106727,0.033754833,-0.6349212
1730745224506,-0.5021676,1.3250035,-9.534129,-0.6107125,0.14172074,-0.2237294,0.7694165,0.061106727,0.033754833,-0.6349212
1730745224507,-0.5021676,1.3250035,-9.534129,-0.6107125,0.14172074,-0.2237294,0.76788497,0.058076344,0.03804024,-0.6368146
1730745224509,-0.5021676,1.3250035,-9.534129,-0.6107125,0.14172074,-0.2237294,0.76659584,0.054374382,0.042892464,-0.63838434
1730745224510,-0.5021676,1.3250035,-9.534129,-0.6107125,0.14172074,-0.2237294,0.76544636,0.050252125,0.048179347,-0.63972294
1730745224511,-0.5021676,1.3250035,-9.534129,-0.6107125,0.14172074,-0.2237294,0.76486963,0.048175666,0.050868876,-0.6403639
1730745224513,-0.54169416,1.1812704,-9.382011,-0.6107125,0.14172074,-0.2237294,0.76486963,0.048175666,0.050868876,-0.6403639
1730745224515,-0.6566806,1.1824682,-9.277805,-0.6107125,0.14172074,-0.2237294,0.76486963,0.048175666,0.050868876,-0.6403639
1730745224517,-0.63631845,1.2303792,-9.239476,-0.6107125,0.14172074,-0.2237294,0.76486963,0.048175666,0.050868876,-0.6403639
1730745224519,-0.5776274,1.3645301,-9.296969,-0.6107125,0.14172074,-0.2237294,0.76486963,0.048175666,0.050868876,-0.6403639
1730745224521,-0.5776274,1.3645301,-9.296969,-0.5549711,0.12889257,-0.23258694,0.76486963,0.048175666,0.050868876,-0.6403639
1730745224523,-0.5776274,1.3645301,-9.296969,-0.4859433,0.11102476,-0.2405282,0.76486963,0.048175666,0.050868876,-0.6403639
1730745224525,-0.5776274,1.3645301,-9.296969,-0.41218132,0.08811731,-0.24220806,0.76486963,0.048175666,0.050868876,-0.6403639
1730745224527,-0.5776274,1.3645301,-9.296969,-0.3407101,0.06414085,-0.24144448,0.76486963,0.048175666,0.050868876,-0.6403639
1730745224529,-0.5776274,1.3645301,-9.296969,-0.28023443,0.03634648,-0.23441954,0.76486963,0.048175666,0.050868876,-0.6403639
1730745224531,-0.5776274,1.3645301,-9.296969,-0.23548855,0.008857546,-0.22724187,0.76486963,0.048175666,0.050868876,-0.6403639
1730745224533,-0.5776274,1.3645301,-9.296969,-0.20647246,-0.016035212,-0.21868975,0.76486963,0.048175666,0.050868876,-0.6403639
1730745224534,-0.5776274,1.3645301,-9.296969,-0.19914207,-0.037110064,-0.21242839,0.76486963,0.048175666,0.050868876,-0.6403639
1730745224536,-0.5776274,1.3645301,-9.296969,-0.19914207,-0.037110064,-0.21242839,0.7642381,0.046313297,0.05331112,-0.64105636
1730745224537,-0.5776274,1.3645301,-9.296969,-0.19914207,-0.037110064,-0.21242839,0.7635423,0.044824675,0.055219695,-0.6418293
1730745224538,-0.5776274,1.3645301,-9.296969,-0.19914207,-0.037110064,-0.21242839,0.76283425,0.043697756,0.056509987,-0.64263594
1730745224539,-0.5776274,1.3645301,-9.296969,-0.19914207,-0.037110064,-0.21242839,0.7621623,0.042752493,0.057303496,-0.64342624
1730745224544,-0.43389428,1.4771211,-9.449087,-0.19914207,-0.037110064,-0.21242839,0.7621623,0.042752493,0.057303496,-0.64342624
1730745224546,-0.3680166,1.4771211,-9.590425,-0.19914207,-0.037110064,-0.21242839,0.7621623,0.042752493,0.057303496,-0.64342624
1730745224548,-0.32010555,1.4759233,-9.619171,-0.19914207,-0.037110064,-0.21242839,0.7621623,0.042752493,0.057303496,-0.64342624
1730745224550,-0.37879658,1.3130257,-9.524547,-0.19914207,-0.037110064,-0.21242839,0.7621623,0.042752493,0.057303496,-0.64342624
1730745224552,-0.37879658,1.3130257,-9.524547,-0.20662516,-0.04932737,-0.2098322,0.7621623,0.042752493,0.057303496,-0.64342624
1730745224554,-0.37879658,1.3130257,-9.524547,-0.23075435,-0.055283304,-0.20341812,0.7621623,0.042752493,0.057303496,-0.64342624
1730745224555,-0.37879658,1.3130257,-9.524547,-0.27076602,-0.05009095,-0.19333886,0.7621623,0.042752493,0.057303496,-0.64342624
1730745224557,-0.37879658,1.3130257,-9.524547,-0.3203988,-0.03726278,-0.18188512,0.7621623,0.042752493,0.057303496,-0.64342624
1730745224559,-0.37879658,1.3130257,-9.524547,-0.3747658,-0.02076942,-0.1742493,0.7621623,0.042752493,0.057303496,-0.64342624
1730745224561,-0.37879658,1.3130257,-9.524547,-0.42317688,-0.0018325958,-0.17027868,0.7621623,0.042752493,0.057303496,-0.64342624
1730745224563,-0.37879658,1.3130257,-9.524547,-0.45830166,0.01695151,-0.16768251,0.7621623,0.042752493,0.057303496,-0.64342624
1730745224565,-0.37879658,1.3130257,-9.524547,-0.46914452,0.03176499,-0.16768251,0.7621623,0.042752493,0.057303496,-0.64342624
1730745224566,-0.37879658,1.3130257,-9.524547,-0.46914452,0.03176499,-0.16768251,0.7615303,0.04176896,0.057871222,-0.64418787
1730745224568,-0.37879658,1.3130257,-9.524547,-0.46914452,0.03176499,-0.16768251,0.76095414,0.040589806,0.05853419,-0.6448838
1730745224569,-0.37879658,1.3130257,-9.524547,-0.46914452,0.03176499,-0.16768251,0.7604493,0.03913355,0.059567142,-0.6454745
1730745224569,-0.37879658,1.3130257,-9.524547,-0.46914452,0.03176499,-0.16768251,0.75997925,0.03745069,0.061020136,-0.645992
1730745224571,-0.478212,0.9788463,-9.458669,-0.46914452,0.03176499,-0.16768251,0.75997925,0.03745069,0.061020136,-0.645992
1730745224573,-0.6039785,0.79798216,-9.325716,-0.46914452,0.03176499,-0.16768251,0.75997925,0.03745069,0.061020136,-0.645992
1730745224575,-0.73693156,0.81834435,-9.25864,-0.46914452,0.03176499,-0.16768251,0.75997925,0.03745069,0.061020136,-0.645992
1730745224576,-0.76328266,0.98243964,-9.296969,-0.46914452,0.03176499,-0.16768251,0.75997925,0.03745069,0.061020136,-0.645992
1730745224579,-0.76328266,0.98243964,-9.296969,-0.44837508,0.043982297,-0.16920967,0.75997925,0.03745069,0.061020136,-0.645992
1730745224581,-0.76328266,0.98243964,-9.296969,-0.39614612,0.049632803,-0.16982053,0.75997925,0.03745069,0.061020136,-0.645992
1730745224585,-0.76328266,0.98243964,-9.296969,-0.3210097,0.05024367,-0.17058411,0.75997925,0.03745069,0.061020136,-0.645992
1730745224587,-0.76328266,0.98243964,-9.296969,-0.2312125,0.041996986,-0.16752979,0.75997925,0.03745069,0.061020136,-0.645992
1730745224589,-0.76328266,0.98243964,-9.296969,-0.1366811,0.023823744,-0.16707164,0.75997925,0.03745069,0.061020136,-0.645992
1730745224591,-0.76328266,0.98243964,-9.296969,-0.049480084,0.0033597588,-0.16523905,0.75997925,0.03745069,0.061020136,-0.645992
1730745224592,-0.76328266,0.98243964,-9.296969,0.02076942,-0.021991149,-0.1656972,0.75997925,0.03745069,0.061020136,-0.645992
1730745224594,-0.76328266,0.98243964,-9.296969,0.069027774,-0.049480084,-0.16462818,0.75997925,0.03745069,0.061020136,-0.645992
1730745224595,-0.76328266,0.98243964,-9.296969,0.069027774,-0.049480084,-0.16462818,0.75950265,0.035793014,0.06264757,-0.6464904
1730745224596,-0.76328266,0.98243964,-9.296969,0.069027774,-0.049480084,-0.16462818,0.7589977,0.03452656,0.06402543,-0.6470173
1730745224597,-0.76328266,0.98243964,-9.296969,0.069027774,-0.049480084,-0.16462818,0.7584749,0.033841804,0.06480298,-0.64758873
1730745224598,-0.76328266,0.98243964,-9.296969,0.069027774,-0.049480084,-0.16462818,0.75794214,0.033656824,0.06489341,-0.6482129
1730745224600,-0.73333824,1.1070083,-9.229894,0.069027774,-0.049480084,-0.16462818,0.75794214,0.033656824,0.06489341,-0.6482129
1730745224601,-0.6183518,1.124975,-9.221509,0.069027774,-0.049480084,-0.16462818,0.75794214,0.033656824,0.06489341,-0.6482129
1730745224603,-0.48539865,1.0938327,-9.287387,0.069027774,-0.049480084,-0.16462818,0.75794214,0.033656824,0.06489341,-0.6482129
1730745224605,-0.3823899,1.0063951,-9.287387,0.069027774,-0.049480084,-0.16462818,0.75794214,0.033656824,0.06489341,-0.6482129
1730745224607,-0.3823899,1.0063951,-9.287387,0.09682214,-0.07437284,-0.160963,0.75794214,0.033656824,0.06489341,-0.6482129
1730745224609,-0.3823899,1.0063951,-9.287387,0.10888673,-0.0954477,-0.15241088,0.75794214,0.033656824,0.06489341,-0.6482129
1730745224611,-0.3823899,1.0063951,-9.287387,0.107665,-0.11530081,-0.14126259,0.75794214,0.033656824,0.06489341,-0.6482129
1730745224612,-0.3823899,1.0063951,-9.287387,0.100334615,-0.12996158,-0.12873985,0.75794214,0.033656824,0.06489341,-0.6482129
1730745224614,-0.3823899,1.0063951,-9.287387,0.08582657,-0.13973543,-0.11759156,0.75794214,0.033656824,0.06489341,-0.6482129
1730745224615,-0.3823899,1.0063951,-9.287387,0.07009678,-0.14340061,-0.10629055,0.75794214,0.033656824,0.06489341,-0.6482129
1730745224617,-0.3823899,1.0063951,-9.287387,0.0580322,-0.14202617,-0.096516706,0.75794214,0.033656824,0.06489341,-0.6482129
1730745224619,-0.3823899,1.0063951,-9.287387,0.0580322,-0.13958271,-0.0842994,0.75794214,0.033656824,0.06489341,-0.6482129
1730745224620,-0.3823899,1.0063951,-9.287387,0.0580322,-0.13958271,-0.0842994,0.75741905,0.033687897,0.06446568,-0.64886504
1730745224622,-0.3823899,1.0063951,-9.287387,0.0580322,-0.13958271,-0.0842994,0.7569549,0.033699933,0.06376762,-0.6494747
1730745224623,-0.3823899,1.0063951,-9.287387,0.0580322,-0.13958271,-0.0842994,0.75657445,0.033580814,0.06298694,-0.65000015
1730745224624,-0.3823899,1.0063951,-9.287387,0.0580322,-0.13958271,-0.0842994,0.7562709,0.033339735,0.06225206,-0.65043634
1730745224626,-0.34406114,0.9381219,-9.34488,0.0580322,-0.13958271,-0.0842994,0.7562709,0.033339735,0.06225206,-0.65043634
1730745224628,-0.33567667,0.8710465,-9.364045,0.0580322,-0.13958271,-0.0842994,0.7562709,0.033339735,0.06225206,-0.65043634
1730745224630,-0.2973479,0.94770414,-9.420341,0.0580322,-0.13958271,-0.0842994,0.7562709,0.033339735,0.06225206,-0.65043634
1730745224632,-0.37160993,1.1309638,-9.439505,0.0580322,-0.13958271,-0.0842994,0.7562709,0.033339735,0.06225206,-0.65043634
1730745224633,-0.37160993,1.1309638,-9.439505,0.069027774,-0.13713925,-0.0720821,0.7562709,0.033339735,0.06225206,-0.65043634
1730745224635,-0.37160993,1.1309638,-9.439505,0.086132,-0.13744467,-0.05757405,0.7562709,0.033339735,0.06225206,-0.65043634
1730745224637,-0.37160993,1.1309638,-9.439505,0.10934488,-0.1375974,-0.043218717,0.7562709,0.033339735,0.06225206,-0.65043634
1730745224639,-0.37160993,1.1309638,-9.439505,0.1348485,-0.13912456,-0.031154128,0.7562709,0.033339735,0.06225206,-0.65043634
1730745224640,-0.37160993,1.1309638,-9.439505,0.16523905,-0.14309518,-0.021533,0.7562709,0.033339735,0.06225206,-0.65043634
1730745224642,-0.37160993,1.1309638,-9.439505,0.19547687,-0.14462234,-0.01450805,0.7562709,0.033339735,0.06225206,-0.65043634
1730745224643,-0.37160993,1.1309638,-9.439505,0.22113322,-0.14614952,-0.0050396384,0.7562709,0.033339735,0.06225206,-0.65043634
1730745224645,-0.37160993,1.1309638,-9.439505,0.236863,-0.14263703,0.0070249503,0.7562709,0.033339735,0.06225206,-0.65043634
1730745224646,-0.37160993,1.1309638,-9.439505,0.236863,-0.14263703,0.0070249503,0.75604236,0.033113346,0.06152323,-0.6507828
1730745224646,-0.37160993,1.1309638,-9.439505,0.236863,-0.14263703,0.0070249503,0.755898,0.033015717,0.06069034,-0.65103376
1730745224647,-0.37160993,1.1309638,-9.439505,0.236863,-0.14263703,0.0070249503,0.7558231,0.03310514,0.059674047,-0.6512101
1730745224648,-0.37160993,1.1309638,-9.439505,0.236863,-0.14263703,0.0070249503,0.7557966,0.03340273,0.058456466,-0.65133613
1730745224650,-0.37879658,1.2555325,-9.420341,0.236863,-0.14263703,0.0070249503,0.7557966,0.03340273,0.058456466,-0.65133613
1730745224651,-0.3117212,1.3034436,-9.364045,0.236863,-0.14263703,0.0070249503,0.7557966,0.03340273,0.058456466,-0.65133613
1730745224653,-0.21709692,1.3214102,-9.364045,0.236863,-0.14263703,0.0070249503,0.7557966,0.03340273,0.058456466,-0.65133613
1730745224654,-0.17757034,1.3597391,-9.288585,0.236863,-0.14263703,0.0070249503,0.7557966,0.03340273,0.058456466,-0.65133613
1730745224656,-0.17757034,1.3597391,-9.288585,0.23945917,-0.1414153,0.021685716,0.7557966,0.03340273,0.058456466,-0.65133613
1730745224658,-0.17757034,1.3597391,-9.288585,0.22983804,-0.13881913,0.03283401,0.7557966,0.03340273,0.058456466,-0.65133613
1730745224660,-0.17757034,1.3597391,-9.288585,0.21166481,-0.13744467,0.039095376,0.7557966,0.03340273,0.058456466,-0.65133613
1730745224664,-0.17757034,1.3597391,-9.288585,0.18997909,-0.13103059,0.045356743,0.7557966,0.03340273,0.058456466,-0.65133613
1730745224666,-0.17757034,1.3597391,-9.288585,0.1693624,-0.12599096,0.046731193,0.7557966,0.03340273,0.058456466,-0.65133613
1730745224667,-0.17757034,1.3597391,-9.288585,0.14630222,-0.11835514,0.046883907,0.7557966,0.03340273,0.058456466,-0.65133613
1730745224669,-0.17757034,1.3597391,-9.288585,0.12690726,-0.10949759,0.045662176,0.7557966,0.03340273,0.058456466,-0.65133613
1730745224671,-0.17757034,1.3597391,-9.288585,0.112399206,-0.100792766,0.0421497,0.7557966,0.03340273,0.058456466,-0.65133613
1730745224672,-0.17757034,1.3597391,-9.288585,0.112399206,-0.100792766,0.0421497,0.7558418,0.033829544,0.057148185,-0.65137774
1730745224673,-0.17757034,1.3597391,-9.288585,0.112399206,-0.100792766,0.0421497,0.75595385,0.034220744,0.05589529,-0.65133584
1730745224674,-0.17757034,1.3597391,-9.288585,0.112399206,-0.100792766,0.0421497,0.7561038,0.034502894,0.05479811,-0.65124017
1730745224675,-0.17757034,1.3597391,-9.288585,0.112399206,-0.100792766,0.0421497,0.75626063,0.03467332,0.053892627,-0.65112466
1730745224676,-0.10091263,1.3872879,-9.2310915,0.112399206,-0.100792766,0.0421497,0.75626063,0.03467332,0.053892627,-0.65112466
1730745224678,-0.072166026,1.4639455,-9.279003,0.112399206,-0.100792766,0.0421497,0.75626063,0.03467332,0.053892627,-0.65112466
1730745224680,-0.099714875,1.5214387,-9.325716,0.112399206,-0.100792766,0.0421497,0.75626063,0.03467332,0.053892627,-0.65112466
1730745224681,-0.08055043,1.5885142,-9.439505,0.112399206,-0.100792766,0.0421497,0.75626063,0.03467332,0.053892627,-0.65112466
1730745224683,-0.08055043,1.5885142,-9.439505,0.10399981,-0.094531395,0.03848451,0.75626063,0.03467332,0.053892627,-0.65112466
1730745224685,-0.08055043,1.5885142,-9.439505,0.09911288,-0.08827003,0.032375857,0.75626063,0.03467332,0.053892627,-0.65112466
1730745224687,-0.08055043,1.5885142,-9.439505,0.094225965,-0.082161374,0.025045475,0.75626063,0.03467332,0.053892627,-0.65112466
1730745224688,-0.08055043,1.5885142,-9.439505,0.08933904,-0.07467828,0.020005837,0.75626063,0.03467332,0.053892627,-0.65112466
1730745224690,-0.08055043,1.5885142,-9.439505,0.083383106,-0.064751714,0.015118915,0.75626063,0.03467332,0.053892627,-0.65112466
1730745224692,-0.08055043,1.5885142,-9.439505,0.07620544,-0.056046885,0.013897184,0.75626063,0.03467332,0.053892627,-0.65112466
1730745224693,-0.08055043,1.5885142,-9.439505,0.0664316,-0.044898596,0.010231993,0.75626063,0.03467332,0.053892627,-0.65112466
1730745224695,-0.08055043,1.5885142,-9.439505,0.053145275,-0.032375857,0.007788532,0.75626063,0.03467332,0.053892627,-0.65112466
1730745224696,-0.08055043,1.5885142,-9.439505,0.053145275,-0.032375857,0.007788532,0.7564003,0.034784727,0.053139105,-0.6510184
1730745224697,-0.08055043,1.5885142,-9.439505,0.053145275,-0.032375857,0.007788532,0.7565013,0.034884617,0.052480176,-0.65094906
1730745224697,-0.08055043,1.5885142,-9.439505,0.053145275,-0.032375857,0.007788532,0.7565649,0.03499243,0.051918913,-0.6509145
1730745224698,-0.08055043,1.5885142,-9.439505,0.053145275,-0.032375857,0.007788532,0.75660616,0.03510368,0.051479515,-0.6508954
1730745224701,-0.12846148,1.5897119,-9.543711,0.053145275,-0.032375857,0.007788532,0.75660616,0.03510368,0.051479515,-0.6508954
1730745224704,-0.14642811,1.6280408,-9.562876,0.053145275,-0.032375857,0.007788532,0.75660616,0.03510368,0.051479515,-0.6508954
1730745224705,-0.18355918,1.7142806,-9.487415,0.053145275,-0.032375857,0.007788532,0.75660616,0.03510368,0.051479515,-0.6508954
1730745224707,-0.16439474,1.7909384,-9.449087,0.053145275,-0.032375857,0.007788532,0.75660616,0.03510368,0.051479515,-0.6508954
1730745224708,-0.16439474,1.7909384,-9.449087,0.03863723,-0.021227567,0.0041233404,0.75660616,0.03510368,0.051479515,-0.6508954
1730745224710,-0.16439474,1.7909384,-9.449087,0.026572637,-0.011148291,-0.00076358154,0.75660616,0.03510368,0.051479515,-0.6508954
1730745224711,-0.16439474,1.7909384,-9.449087,0.01572978,-0.002443461,-0.008093964,0.75660616,0.03510368,0.051479515,-0.6508954
1730745224713,-0.16439474,1.7909384,-9.449087,0.005955936,0.0013744468,-0.015271631,0.75660616,0.03510368,0.051479515,-0.6508954
1730745224715,-0.16439474,1.7909384,-9.449087,-0.0025961774,0.003970624,-0.017715093,0.75660616,0.03510368,0.051479515,-0.6508954
1730745224716,-0.16439474,1.7909384,-9.449087,-0.010995574,0.0076358155,-0.021380283,0.75660616,0.03510368,0.051479515,-0.6508954
1730745224718,-0.16439474,1.7909384,-9.449087,-0.02321288,0.011453724,-0.022449298,0.75660616,0.03510368,0.051479515,-0.6508954
1730745224719,-0.16439474,1.7909384,-9.449087,-0.03894266,0.014049901,-0.022296581,0.75660616,0.03510368,0.051479515,-0.6508954
1730745224720,-0.16439474,1.7909384,-9.449087,-0.03894266,0.014049901,-0.022296581,0.7566255,0.0351949,0.05120969,-0.6508892
1730745224721,-0.16439474,1.7909384,-9.449087,-0.03894266,0.014049901,-0.022296581,0.75661016,0.035258014,0.051095992,-0.65091264
1730745224722,-0.16439474,1.7909384,-9.449087,-0.03894266,0.014049901,-0.022296581,0.7565601,0.03527683,0.05108598,-0.6509706
1730745224723,-0.16439474,1.7909384,-9.449087,-0.03894266,0.014049901,-0.022296581,0.756492,0.03524492,0.051168926,-0.6510449
1730745224724,-0.12606591,1.819685,-9.458669,-0.03894266,0.014049901,-0.022296581,0.756492,0.03524492,0.051168926,-0.6510449
1730745224726,-0.1739769,1.8005205,-9.524547,-0.03894266,0.014049901,-0.022296581,0.756492,0.03524492,0.051168926,-0.6510449
1730745224727,-0.16439474,1.7813561,-9.58204,-0.03894266,0.014049901,-0.022296581,0.756492,0.03524492,0.051168926,-0.6510449
1730745224729,-0.18355918,1.733445,-9.505383,-0.03894266,0.014049901,-0.022296581,0.756492,0.03524492,0.051168926,-0.6510449
1730745224731,-0.18355918,1.733445,-9.505383,-0.05589417,0.019242255,-0.024740042,0.756492,0.03524492,0.051168926,-0.6510449
1730745224732,-0.18355918,1.733445,-9.505383,-0.074067414,0.027947085,-0.03191771,0.756492,0.03524492,0.051168926,-0.6510449
1730745224734,-0.18355918,1.733445,-9.505383,-0.09712757,0.03436117,-0.037873644,0.756492,0.03524492,0.051168926,-0.6510449
1730745224735,-0.18355918,1.733445,-9.505383,-0.12507465,0.040775254,-0.043829583,0.756492,0.03524492,0.051168926,-0.6510449
1730745224737,-0.18355918,1.733445,-9.505383,-0.15775596,0.048563786,-0.05207626,0.756492,0.03524492,0.051168926,-0.6510449
1730745224738,-0.18355918,1.733445,-9.505383,-0.19058995,0.056199603,-0.06169739,0.756492,0.03524492,0.051168926,-0.6510449
1730745224739,-0.18355918,1.733445,-9.505383,-0.22204952,0.060170226,-0.07360926,0.756492,0.03524492,0.051168926,-0.6510449
1730745224742,-0.18355918,1.733445,-9.505383,-0.24755314,0.06795876,-0.08323039,0.756492,0.03524492,0.051168926,-0.6510449
1730745224745,-0.18355918,1.733445,-9.505383,-0.24755314,0.06795876,-0.08323039,0.7564188,0.035124347,0.051376484,-0.65112007
1730745224746,-0.18355918,1.733445,-9.505383,-0.24755314,0.06795876,-0.08323039,0.756314,0.034901872,0.051762357,-0.65122324
1730745224746,-0.18355918,1.733445,-9.505383,-0.24755314,0.06795876,-0.08323039,0.756172,0.034512572,0.05238224,-0.6513593
1730745224747,-0.18355918,1.733445,-9.505383,-0.24755314,0.06795876,-0.08323039,0.7559735,0.03392017,0.053260956,-0.6515496
1730745224749,-0.12726372,1.6376231,-9.514964,-0.24755314,0.06795876,-0.08323039,0.7559735,0.03392017,0.053260956,-0.6515496
1730745224751,-0.14762592,1.5034721,-9.609589,-0.24755314,0.06795876,-0.08323039,0.7559735,0.03392017,0.053260956,-0.6515496
1730745224752,-0.23506355,1.4459789,-9.6575,-0.24755314,0.06795876,-0.08323039,0.7559735,0.03392017,0.053260956,-0.6515496
1730745224753,-0.32968783,1.4375944,-9.6575,-0.24755314,0.06795876,-0.08323039,0.7559735,0.03392017,0.053260956,-0.6515496
1730745224755,-0.32968783,1.4375944,-9.6575,-0.2658791,0.07422013,-0.094225965,0.7559735,0.03392017,0.053260956,-0.6515496
1730745224756,-0.32968783,1.4375944,-9.6575,-0.28038713,0.07803804,-0.1001819,0.7559735,0.03392017,0.053260956,-0.6515496
1730745224758,-0.32968783,1.4375944,-9.6575,-0.29123,0.08307768,-0.103847094,0.7559735,0.03392017,0.053260956,-0.6515496
1730745224759,-0.32968783,1.4375944,-9.6575,-0.29856038,0.09056077,-0.105068825,0.7559735,0.03392017,0.053260956,-0.6515496
1730745224761,-0.32968783,1.4375944,-9.6575,-0.30100384,0.098043874,-0.10873401,0.7559735,0.03392017,0.053260956,-0.6515496
1730745224762,-0.32968783,1.4375944,-9.6575,-0.30207285,0.105374254,-0.107665,0.7559735,0.03392017,0.053260956,-0.6515496
1730745224764,-0.32968783,1.4375944,-9.6575,-0.3032946,0.106595986,-0.105068825,0.7559735,0.03392017,0.053260956,-0.6515496
1730745224765,-0.32968783,1.4375944,-9.6575,-0.30818152,0.10415252,-0.09896017,0.7559735,0.03392017,0.053260956,-0.6515496
1730745224766,-0.32968783,1.4375944,-9.6575,-0.30818152,0.10415252,-0.09896017,0.7557111,0.0331753,0.054356646,-0.6518018
1730745224766,-0.32968783,1.4375944,-9.6575,-0.30818152,0.10415252,-0.09896017,0.7554069,0.032341134,0.055593632,-0.652092
1730745224767,-0.32968783,1.4375944,-9.6575,-0.30818152,0.10415252,-0.09896017,0.7550793,0.031493556,0.05693309,-0.6523972
1730745224768,-0.32968783,1.4375944,-9.6575,-0.30818152,0.10415252,-0.09896017,0.75474954,0.030665545,0.058328606,-0.65269494
1730745224769,-0.3680166,1.4675388,-9.647918,-0.30818152,0.10415252,-0.09896017,0.75474954,0.030665545,0.058328606,-0.65269494
1730745224771,-0.41592765,1.4100456,-9.609589,-0.30818152,0.10415252,-0.09896017,0.75474954,0.030665545,0.058328606,-0.65269494
1730745224772,-0.39915884,1.2555325,-9.580842,-0.30818152,0.10415252,-0.09896017,0.75474954,0.030665545,0.058328606,-0.65269494
1730745224774,-0.39077437,1.1022172,-9.553293,-0.30818152,0.10415252,-0.09896017,0.75474954,0.030665545,0.058328606,-0.65269494
1730745224775,-0.39077437,1.1022172,-9.553293,-0.31658092,0.09682214,-0.08903361,0.75474954,0.030665545,0.058328606,-0.65269494
1730745224777,-0.39077437,1.1022172,-9.553293,-0.32742378,0.08827003,-0.07544186,0.75474954,0.030665545,0.058328606,-0.65269494
1730745224778,-0.39077437,1.1022172,-9.553293,-0.3408628,0.074830994,-0.0580322,0.75474954,0.030665545,0.058328606,-0.65269494
1730745224780,-0.39077437,1.1022172,-9.553293,-0.3565926,0.061391957,-0.03940081,0.75474954,0.030665545,0.058328606,-0.65269494
1730745224782,-0.39077437,1.1022172,-9.553293,-0.3735441,0.051618114,-0.021991149,0.75474954,0.030665545,0.058328606,-0.65269494
1730745224784,-0.39077437,1.1022172,-9.553293,-0.38560867,0.043066,-0.0096211275,0.75474954,0.030665545,0.058328606,-0.65269494
1730745224786,-0.39077437,1.1022172,-9.553293,-0.39293906,0.03573562,-0.00580322,0.75474954,0.030665545,0.058328606,-0.65269494
1730745224789,-0.39077437,1.1022172,-9.553293,-0.39293906,0.030848695,-0.00580322,0.75474954,0.030665545,0.058328606,-0.65269494
1730745224790,-0.39077437,1.1022172,-9.553293,-0.39293906,0.030848695,-0.00580322,0.75445956,0.029787987,0.05973779,-0.6529432
1730745224791,-0.39077437,1.1022172,-9.553293,-0.39293906,0.030848695,-0.00580322,0.75426227,0.028779518,0.06114536,-0.65308607
1730745224791,-0.39077437,1.1022172,-9.553293,-0.39293906,0.030848695,-0.00580322,0.7541874,0.027589696,0.062558986,-0.65309
1730745224792,-0.39077437,1.1022172,-9.553293,-0.39293906,0.030848695,-0.00580322,0.7541913,0.026259355,0.063980035,-0.6530027
1730745224793,-0.43988323,1.0063951,-9.562876,-0.39293906,0.030848695,-0.00580322,0.7541913,0.026259355,0.063980035,-0.6530027
1730745224795,-0.48779428,0.9500997,-9.580842,-0.39293906,0.030848695,-0.00580322,0.7541913,0.026259355,0.063980035,-0.6530027
1730745224796,-0.46862984,0.9201553,-9.609589,-0.39293906,0.030848695,-0.00580322,0.7541913,0.026259355,0.063980035,-0.6530027
1730745224798,-0.46982753,0.87224424,-9.619171,-0.39293906,0.030848695,-0.00580322,0.7541913,0.026259355,0.063980035,-0.6530027
1730745224799,-0.46982753,0.87224424,-9.619171,-0.3894266,0.024740042,-0.0106901415,0.7541913,0.026259355,0.063980035,-0.6530027
1730745224801,-0.46982753,0.87224424,-9.619171,-0.38331795,0.018478673,-0.011911872,0.7541913,0.026259355,0.063980035,-0.6530027
1730745224802,-0.46982753,0.87224424,-9.619171,-0.37858373,0.010995574,-0.014202617,0.7541913,0.026259355,0.063980035,-0.6530027
1730745224804,-0.46982753,0.87224424,-9.619171,-0.377362,0.0010690142,-0.016646078,0.7541913,0.026259355,0.063980035,-0.6530027
1730745224805,-0.46982753,0.87224424,-9.619171,-0.376293,-0.007483099,-0.025198191,0.7541913,0.026259355,0.063980035,-0.6530027
1730745224807,-0.46982753,0.87224424,-9.619171,-0.37522396,-0.01863139,-0.03481932,0.7541913,0.026259355,0.063980035,-0.6530027
1730745224808,-0.46982753,0.87224424,-9.619171,-0.3727805,-0.023518313,-0.0421497,0.7541913,0.026259355,0.063980035,-0.6530027
1730745224810,-0.46982753,0.87224424,-9.619171,-0.36926803,-0.02977968,-0.044593163,0.7541913,0.026259355,0.063980035,-0.6530027
1730745224811,-0.46982753,0.87224424,-9.619171,-0.36926803,-0.02977968,-0.044593163,0.7542007,0.024877068,0.06536547,-0.65290874
1730745224811,-0.46982753,0.87224424,-9.619171,-0.36926803,-0.02977968,-0.044593163,0.7541995,0.023483573,0.06667319,-0.6528296
1730745224812,-0.46982753,0.87224424,-9.619171,-0.36926803,-0.02977968,-0.044593163,0.7541735,0.022045553,0.067901984,-0.6527831
1730745224813,-0.46982753,0.87224424,-9.619171,-0.36926803,-0.02977968,-0.044593163,0.75409806,0.020558277,0.06905691,-0.65279764
1730745224814,-0.48899198,0.86385983,-9.619171,-0.36926803,-0.02977968,-0.044593163,0.75409806,0.020558277,0.06905691,-0.65279764
1730745224815,-0.4506632,0.8051688,-9.553293,-0.36926803,-0.02977968,-0.044593163,0.75409806,0.020558277,0.06905691,-0.65279764
1730745224816,-0.4614432,0.7093468,-9.410758,-0.36926803,-0.02977968,-0.044593163,0.75409806,0.020558277,0.06905691,-0.65279764
1730745224818,-0.40514767,0.6027447,-9.364045,-0.36926803,-0.02977968,-0.044593163,0.75409806,0.020558277,0.06905691,-0.65279764
1730745224819,-0.40514767,0.6027447,-9.364045,-0.3643811,-0.032223143,-0.04337143,0.75409806,0.020558277,0.06905691,-0.65279764
1730745224821,-0.40514767,0.6027447,-9.364045,-0.35705075,-0.03481932,-0.03970624,0.75409806,0.020558277,0.06905691,-0.65279764
1730745224823,-0.40514767,0.6027447,-9.364045,-0.3462079,-0.03726278,-0.037415497,0.75409806,0.020558277,0.06905691,-0.65279764
1730745224826,-0.40514767,0.6027447,-9.364045,-0.3352123,-0.03863723,-0.033750303,0.75409806,0.020558277,0.06905691,-0.65279764
1730745224827,-0.40514767,0.6027447,-9.364045,-0.32436943,-0.043676864,-0.0290161,0.75409806,0.020558277,0.06905691,-0.65279764
1730745224829,-0.40514767,0.6027447,-9.364045,-0.31337386,-0.04627304,-0.022907447,0.75409806,0.020558277,0.06905691,-0.65279764
1730745224830,-0.40514767,0.6027447,-9.364045,-0.30008754,-0.04886922,-0.01572978,0.75409806,0.020558277,0.06905691,-0.65279764
1730745224832,-0.40514767,0.6027447,-9.364045,-0.28420505,-0.05024367,-0.005955936,0.75409806,0.020558277,0.06905691,-0.65279764
1730745224832,-0.40514767,0.6027447,-9.364045,-0.28420505,-0.05024367,-0.005955936,0.7540046,0.019061746,0.07014905,-0.6528344
1730745224833,-0.40514767,0.6027447,-9.364045,-0.28420505,-0.05024367,-0.005955936,0.7539227,0.017602587,0.07116935,-0.65285975
1730745224834,-0.40514767,0.6027447,-9.364045,-0.28420505,-0.05024367,-0.005955936,0.7538619,0.016205298,0.072099395,-0.65286386
1730745224834,-0.40514767,0.6027447,-9.364045,-0.28420505,-0.05024367,-0.005955936,0.7538381,0.014879308,0.07293018,-0.6528307
1730745224836,-0.41592765,0.53566927,-9.287387,-0.28420505,-0.05024367,-0.005955936,0.7538381,0.014879308,0.07293018,-0.6528307
1730745224837,-0.38837886,0.46859384,-9.277805,-0.28420505,-0.05024367,-0.005955936,0.7538381,0.014879308,0.07293018,-0.6528307
1730745224838,-0.38837886,0.4494294,-9.306552,-0.28420505,-0.05024367,-0.005955936,0.7538381,0.014879308,0.07293018,-0.6528307
1730745224840,-0.4063455,0.478176,-9.325716,-0.28420505,-0.05024367,-0.005955936,0.7538381,0.014879308,0.07293018,-0.6528307
1730745224841,-0.4063455,0.478176,-9.325716,-0.2660318,-0.05299256,0.0061086523,0.7538381,0.014879308,0.07293018,-0.6528307
1730745224842,-0.4063455,0.478176,-9.325716,-0.2452624,-0.054367006,0.01817324,0.7538381,0.014879308,0.07293018,-0.6528307
1730745224844,-0.4063455,0.478176,-9.325716,-0.21853705,-0.0571159,0.031306844,0.7538381,0.014879308,0.07293018,-0.6528307
1730745224845,-0.4063455,0.478176,-9.325716,-0.18936823,-0.059864793,0.044593163,0.7538381,0.014879308,0.07293018,-0.6528307
1730745224846,-0.4063455,0.478176,-9.325716,-0.15653422,-0.06261369,0.056505036,0.7538381,0.014879308,0.07293018,-0.6528307
1730745224847,-0.4063455,0.478176,-9.325716,-0.12370021,-0.06658431,0.06841691,0.7538381,0.014879308,0.07293018,-0.6528307
1730745224849,-0.4063455,0.478176,-9.325716,-0.092240654,-0.06566802,0.07788532,0.7538381,0.014879308,0.07293018,-0.6528307
1730745224850,-0.4063455,0.478176,-9.325716,-0.06307184,-0.065973446,0.088728175,0.7538381,0.014879308,0.07293018,-0.6528307
1730745224851,-0.4063455,0.478176,-9.325716,-0.06307184,-0.065973446,0.088728175,0.75387454,0.013664028,0.07364084,-0.6527354
1730745224852,-0.4063455,0.478176,-9.325716,-0.06307184,-0.065973446,0.088728175,0.7539871,0.012606846,0.07419271,-0.65256435
1730745224852,-0.4063455,0.478176,-9.325716,-0.06307184,-0.065973446,0.088728175,0.7541797,0.011760097,0.07453403,-0.6523184
1730745224853,-0.4063455,0.478176,-9.325716,-0.06307184,-0.065973446,0.088728175,0.75444376,0.011149485,0.0746494,-0.6520107
1730745224854,-0.37759888,0.5644159,-9.364045,-0.06307184,-0.065973446,0.088728175,0.75444376,0.011149485,0.0746494,-0.6520107
1730745224855,-0.38718104,0.5931625,-9.391594,-0.06307184,-0.065973446,0.088728175,0.75444376,0.011149485,0.0746494,-0.6520107
1730745224857,-0.3680166,0.5739981,-9.382011,-0.06307184,-0.065973446,0.088728175,0.75444376,0.011149485,0.0746494,-0.6520107
1730745224858,-0.37759888,0.5165048,-9.296969,-0.06307184,-0.065973446,0.088728175,0.75444376,0.011149485,0.0746494,-0.6520107
1730745224860,-0.37759888,0.5165048,-9.296969,-0.04230242,-0.06490443,0.09819659,0.75444376,0.011149485,0.0746494,-0.6520107
1730745224863,-0.37759888,0.5165048,-9.296969,-0.027641652,-0.06383542,0.1067487,0.75444376,0.011149485,0.0746494,-0.6520107
1730745224865,-0.37759888,0.5165048,-9.296969,-0.020463986,-0.065209866,0.11148291,0.75444376,0.011149485,0.0746494,-0.6520107
1730745224866,-0.37759888,0.5165048,-9.296969,-0.016798794,-0.06154467,0.113926366,0.75444376,0.011149485,0.0746494,-0.6520107
1730745224868,-0.37759888,0.5165048,-9.296969,-0.01786781,-0.05665775,0.113926366,0.75444376,0.011149485,0.0746494,-0.6520107
1730745224869,-0.37759888,0.5165048,-9.296969,-0.019089539,-0.051618114,0.107665,0.75444376,0.011149485,0.0746494,-0.6520107
1730745224870,-0.37759888,0.5165048,-9.296969,-0.01786781,-0.04917465,0.101556346,0.75444376,0.011149485,0.0746494,-0.6520107
1730745224871,-0.37759888,0.5165048,-9.296969,-0.0106901415,-0.04795292,0.09407325,0.75444376,0.011149485,0.0746494,-0.6520107
1730745224872,-0.37759888,0.5165048,-9.296969,-0.0106901415,-0.04795292,0.09407325,0.75477177,0.010754107,0.07458363,-0.65164506
1730745224873,-0.37759888,0.5165048,-9.296969,-0.0106901415,-0.04795292,0.09407325,0.75514877,0.0104799215,0.07441988,-0.6512312
1730745224873,-0.37759888,0.5165048,-9.296969,-0.0106901415,-0.04795292,0.09407325,0.7555411,0.0102594355,0.07424938,-0.6507992
1730745224874,-0.37759888,0.5165048,-9.296969,-0.0106901415,-0.04795292,0.09407325,0.75590307,0.010063695,0.074107,-0.65039784
1730745224875,-0.32010555,0.5644159,-9.277805,-0.0106901415,-0.04795292,0.09407325,0.75590307,0.010063695,0.074107,-0.65039784
1730745224877,-0.32849002,0.7177312,-9.364045,-0.0106901415,-0.04795292,0.09407325,0.75590307,0.010063695,0.074107,-0.65039784
1730745224878,-0.3548411,0.8710465,-9.429922,-0.0106901415,-0.04795292,0.09407325,0.75590307,0.010063695,0.074107,-0.65039784
1730745224879,-0.37400556,0.8914087,-9.458669,-0.0106901415,-0.04795292,0.09407325,0.75590307,0.010063695,0.074107,-0.65039784
1730745224880,-0.37400556,0.8914087,-9.458669,-0.0035124752,-0.04932737,0.087964594,0.75590307,0.010063695,0.074107,-0.65039784
1730745224882,-0.37400556,0.8914087,-9.458669,0.0025961774,-0.04932737,0.080634214,0.75590307,0.010063695,0.074107,-0.65039784
1730745224883,-0.37400556,0.8914087,-9.458669,0.004886922,-0.05177083,0.07574729,0.75590307,0.010063695,0.074107,-0.65039784
1730745224885,-0.37400556,0.8914087,-9.458669,0.0036651916,-0.05421429,0.0720821,0.75590307,0.010063695,0.074107,-0.65039784
1730745224886,-0.37400556,0.8914087,-9.458669,0.002443461,-0.05665775,0.0720821,0.75590307,0.010063695,0.074107,-0.65039784
1730745224888,-0.37400556,0.8914087,-9.458669,-0.0012217305,-0.05787948,0.07574729,0.75590307,0.010063695,0.074107,-0.65039784
1730745224889,-0.37400556,0.8914087,-9.458669,-0.0047342055,-0.059101213,0.08445212,0.75590307,0.010063695,0.074107,-0.65039784
1730745224890,-0.37400556,0.8914087,-9.458669,-0.008399397,-0.060322944,0.0917825,0.75590307,0.010063695,0.074107,-0.65039784
1730745224891,-0.37400556,0.8914087,-9.458669,-0.008399397,-0.060322944,0.0917825,0.75622183,0.009910971,0.073935784,-0.65004915
1730745224892,-0.37400556,0.8914087,-9.458669,-0.008399397,-0.060322944,0.0917825,0.75649977,0.009788672,0.073725484,-0.6497514
1730745224892,-0.37400556,0.8914087,-9.458669,-0.008399397,-0.060322944,0.0917825,0.75675917,0.009653486,0.07349666,-0.64947724
1730745224893,-0.37400556,0.8914087,-9.458669,-0.008399397,-0.060322944,0.0917825,0.75704426,0.009490968,0.07327402,-0.6491725
1730745224894,-0.38358772,0.91057307,-9.449087,-0.008399397,-0.060322944,0.0917825,0.75704426,0.009490968,0.07327402,-0.6491725
1730745224895,-0.39197218,1.0063951,-9.410758,-0.008399397,-0.060322944,0.0917825,0.75704426,0.009490968,0.07327402,-0.6491725
1730745224897,-0.4099388,1.0830528,-9.364045,-0.008399397,-0.060322944,0.0917825,0.75704426,0.009490968,0.07327402,-0.6491725
1730745224898,-0.3811922,1.1022172,-9.382011,-0.008399397,-0.060322944,0.0917825,0.75704426,0.009490968,0.07327402,-0.6491725
1730745224900,-0.3811922,1.1022172,-9.382011,-0.009468411,-0.063988134,0.10277808,0.75704426,0.009490968,0.07327402,-0.6491725
1730745224903,-0.3811922,1.1022172,-9.382011,-0.009468411,-0.06658431,0.112704635,0.75704426,0.009490968,0.07327402,-0.6491725
1730745224905,-0.3811922,1.1022172,-9.382011,-0.009468411,-0.070249505,0.121256754,0.75704426,0.009490968,0.07327402,-0.6491725
1730745224906,-0.3811922,1.1022172,-9.382011,-0.00580322,-0.07391469,0.12980886,0.75704426,0.009490968,0.07327402,-0.6491725
1730745224908,-0.3811922,1.1022172,-9.382011,0.00030543262,-0.08017606,0.13713925,0.75704426,0.009490968,0.07327402,-0.6491725
1730745224909,-0.3811922,1.1022172,-9.382011,-0.0021380284,-0.0888809,0.1421789,0.75704426,0.009490968,0.07327402,-0.6491725
1730745224910,-0.3811922,1.1022172,-9.382011,-0.0035124752,-0.101098195,0.14477506,0.75704426,0.009490968,0.07327402,-0.6491725
1730745224912,-0.3811922,1.1022172,-9.382011,-0.0010690142,-0.11224649,0.14721853,0.75704426,0.009490968,0.07327402,-0.6491725
1730745224913,-0.3811922,1.1022172,-9.382011,-0.0010690142,-0.11224649,0.14721853,0.7573834,0.009301171,0.07305288,-0.6488044
1730745224913,-0.3811922,1.1022172,-9.382011,-0.0010690142,-0.11224649,0.14721853,0.7577859,0.009096307,0.07281054,-0.6483644
1730745224914,-0.3811922,1.1022172,-9.382011,-0.0010690142,-0.11224649,0.14721853,0.758245,0.008896058,0.07251174,-0.6478637
1730745224914,-0.3811922,1.1022172,-9.382011,-0.0010690142,-0.11224649,0.14721853,0.75874317,0.008640452,0.07214608,-0.6473247
1730745224916,-0.28776562,0.9668685,-9.468251,-0.0010690142,-0.11224649,0.14721853,0.75874317,0.008640452,0.07214608,-0.6473247
1730745224917,-0.20272362,0.8411021,-9.572457,-0.0010690142,-0.11224649,0.14721853,0.75874317,0.008640452,0.07214608,-0.6473247
1730745224919,-0.19433916,0.78360885,-9.628754,-0.0010690142,-0.11224649,0.14721853,0.75874317,0.008640452,0.07214608,-0.6473247
1730745224920,-0.10929704,0.7440822,-9.572457,-0.0010690142,-0.11224649,0.14721853,0.75874317,0.008640452,0.07214608,-0.6473247
1730745224922,-0.10929704,0.7440822,-9.572457,0.004886922,-0.12095132,0.14721853,0.75874317,0.008640452,0.07214608,-0.6473247
1730745224923,-0.10929704,0.7440822,-9.572457,0.015882496,-0.124769226,0.14844026,0.75874317,0.008640452,0.07214608,-0.6473247
1730745224924,-0.10929704,0.7440822,-9.572457,0.027947085,-0.12858713,0.1470658,0.75874317,0.008640452,0.07214608,-0.6473247
1730745224926,-0.10929704,0.7440822,-9.572457,0.041233405,-0.13362677,0.14095716,0.75874317,0.008640452,0.07214608,-0.6473247
1730745224927,-0.10929704,0.7440822,-9.572457,0.053297993,-0.14355333,0.1348485,0.75874317,0.008640452,0.07214608,-0.6473247
1730745224929,-0.10929704,0.7440822,-9.572457,0.059253927,-0.15103643,0.12385293,0.75874317,0.008640452,0.07214608,-0.6473247
1730745224930,-0.10929704,0.7440822,-9.572457,0.060322944,-0.16584991,0.110413894,0.75874317,0.008640452,0.07214608,-0.6473247
1730745224931,-0.10929704,0.7440822,-9.572457,0.05757405,-0.17928895,0.08857546,0.75874317,0.008640452,0.07214608,-0.6473247
1730745224932,-0.10929704,0.7440822,-9.572457,0.05757405,-0.17928895,0.08857546,0.7592612,0.008337514,0.071685866,-0.64677197
1730745224932,-0.10929704,0.7440822,-9.572457,0.05757405,-0.17928895,0.08857546,0.7597844,0.008069401,0.07112386,-0.64622295
1730745224933,-0.10929704,0.7440822,-9.572457,0.05757405,-0.17928895,0.08857546,0.7602806,0.00784844,0.070434846,-0.64571726
1730745224934,-0.10929704,0.7440822,-9.572457,0.05757405,-0.17928895,0.08857546,0.76071644,0.007601466,0.0696308,-0.64529395
1730745224935,-0.05899048,0.88781536,-9.392792,0.05757405,-0.17928895,0.08857546,0.76071644,0.007601466,0.0696308,-0.64529395
1730745224936,0.038029373,1.0590973,-9.174796,0.05757405,-0.17928895,0.08857546,0.76071644,0.007601466,0.0696308,-0.64529395
1730745224937,0.087138176,1.1645015,-9.013097,0.05757405,-0.17928895,0.08857546,0.76071644,0.007601466,0.0696308,-0.64529395
1730745224939,0.13385141,1.0483173,-9.051425,0.05757405,-0.17928895,0.08857546,0.76071644,0.007601466,0.0696308,-0.64529395
1730745224941,0.13385141,1.0483173,-9.051425,0.056199603,-0.20143281,0.065515295,0.76071644,0.007601466,0.0696308,-0.64529395
1730745224944,0.13385141,1.0483173,-9.051425,0.05589417,-0.22235495,0.040011674,0.76071644,0.007601466,0.0696308,-0.64529395
1730745224946,0.13385141,1.0483173,-9.051425,0.06291912,-0.24587326,0.020616703,0.76071644,0.007601466,0.0696308,-0.64529395
1730745224947,0.13385141,1.0483173,-9.051425,0.06994407,-0.2680171,0.008552114,0.76071644,0.007601466,0.0696308,-0.64529395
1730745224949,0.13385141,1.0483173,-9.051425,0.0795652,-0.2817616,0.0036651916,0.76071644,0.007601466,0.0696308,-0.64529395
1730745224950,0.13385141,1.0483173,-9.051425,0.09896017,-0.29535335,-0.0036651916,0.76071644,0.007601466,0.0696308,-0.64529395
1730745224951,0.13385141,1.0483173,-9.051425,0.1253801,-0.31047225,-0.012370021,0.76071644,0.007601466,0.0696308,-0.64529395
1730745224953,0.13385141,1.0483173,-9.051425,0.14355333,-0.32788193,-0.022143865,0.76071644,0.007601466,0.0696308,-0.64529395
1730745224953,0.13385141,1.0483173,-9.051425,0.14355333,-0.32788193,-0.022143865,0.7610365,0.0072365617,0.068708666,-0.6450196
1730745224954,0.13385141,1.0483173,-9.051425,0.14355333,-0.32788193,-0.022143865,0.7612247,0.0067350026,0.06761243,-0.6449187
1730745224954,0.13385141,1.0483173,-9.051425,0.14355333,-0.32788193,-0.022143865,0.76134497,0.0061531295,0.066319846,-0.64491695
1730745224955,0.13385141,1.0483173,-9.051425,0.14355333,-0.32788193,-0.022143865,0.7614187,0.005608111,0.06479458,-0.6449897
1730745224956,0.2632112,0.7297089,-9.174796,0.14355333,-0.32788193,-0.022143865,0.7614187,0.005608111,0.06479458,-0.6449897
1730745224958,0.4225154,0.49734044,-9.544909,0.14355333,-0.32788193,-0.022143865,0.7614187,0.005608111,0.06479458,-0.6449897
1730745224959,0.65847725,0.3691784,-10.075523,0.14355333,-0.32788193,-0.022143865,0.7614187,0.005608111,0.06479458,-0.6449897
1730745224961,0.7495082,0.8770354,-10.160565,0.14355333,-0.32788193,-0.022143865,0.7614187,0.005608111,0.06479458,-0.6449897
1730745224962,0.7495082,0.8770354,-10.160565,0.15302174,-0.35262197,-0.035430185,0.7614187,0.005608111,0.06479458,-0.6449897
1730745224963,0.7495082,0.8770354,-10.160565,0.16600263,-0.3735441,-0.056199603,0.7614187,0.005608111,0.06479458,-0.6449897
1730745224964,0.7495082,0.8770354,-10.160565,0.19608775,-0.38744128,-0.08200866,0.7614187,0.005608111,0.06479458,-0.6449897
1730745224966,0.7495082,0.8770354,-10.160565,0.24083363,-0.39767328,-0.10308351,0.7614187,0.005608111,0.06479458,-0.6449897
1730745224967,0.7495082,0.8770354,-10.160565,0.3013093,-0.40561453,-0.123242065,0.7614187,0.005608111,0.06479458,-0.6449897
1730745224968,0.7495082,0.8770354,-10.160565,0.34254268,-0.39599338,-0.15302174,0.7614187,0.005608111,0.06479458,-0.6449897
1730745224969,0.7495082,0.8770354,-10.160565,0.36056322,-0.38621956,-0.18142697,0.7614187,0.005608111,0.06479458,-0.6449897
1730745224971,0.7495082,0.8770354,-10.160565,0.35735616,-0.31474832,-0.17592919,0.7614187,0.005608111,0.06479458,-0.6449897
1730745224971,0.7495082,0.8770354,-10.160565,0.35735616,-0.31474832,-0.17592919,0.7614333,0.0050531006,0.06302029,-0.6451529
1730745224972,0.7495082,0.8770354,-10.160565,0.35735616,-0.31474832,-0.17592919,0.76132697,0.004496997,0.06098525,-0.645478
1730745224973,0.7495082,0.8770354,-10.160565,0.35735616,-0.31474832,-0.17592919,0.761084,0.0041835476,0.058580287,-0.6459891
1730745224973,0.7495082,0.8770354,-10.160565,0.35735616,-0.31474832,-0.17592919,0.7606579,0.0041719563,0.055962592,-0.64672285
1730745225007,1.0034367,1.3465635,-9.270618,0.35735616,-0.31474832,-0.17592919,0.7606579,0.0041719563,0.055962592,-0.64672285
1730745225009,1.3771427,1.4387922,-8.427384,0.35735616,-0.31474832,-0.17592919,0.7606579,0.0041719563,0.055962592,-0.64672285
1730745225011,1.6095113,0.92734194,-8.266882,0.35735616,-0.31474832,-0.17592919,0.7606579,0.0041719563,0.055962592,-0.64672285
1730745225012,1.3376162,0.5069226,-8.579501,0.35735616,-0.31474832,-0.17592919,0.7606579,0.0041719563,0.055962592,-0.64672285
1730745225014,1.3376162,0.5069226,-8.579501,0.3034473,-0.24404067,-0.14187345,0.7606579,0.0041719563,0.055962592,-0.64672285
1730745225015,1.3376162,0.5069226,-8.579501,0.21197024,-0.16187929,-0.08552113,0.7606579,0.0041719563,0.055962592,-0.64672285
1730745225017,1.3376162,0.5069226,-8.579501,0.1133155,-0.087201014,-0.025350908,0.7606579,0.0041719563,0.055962592,-0.64672285
1730745225018,1.3376162,0.5069226,-8.579501,0.01695151,-0.023518313,0.021533,0.7606579,0.0041719563,0.055962592,-0.64672285
1730745225019,1.3376162,0.5069226,-8.579501,-0.07223482,0.04138612,0.049938235,0.7606579,0.0041719563,0.055962592,-0.64672285
1730745225022,1.3376162,0.5069226,-8.579501,-0.13729197,0.11224649,0.070554934,0.7606579,0.0041719563,0.055962592,-0.64672285
1730745225024,1.3376162,0.5069226,-8.579501,-0.1695151,0.18646662,0.07880162,0.7606579,0.0041719563,0.055962592,-0.64672285
1730745225026,1.3376162,0.5069226,-8.579501,-0.16187929,0.24678956,0.07819075,0.7606579,0.0041719563,0.055962592,-0.64672285
1730745225027,1.3376162,0.5069226,-8.579501,-0.16187929,0.24678956,0.07819075,0.76023185,0.004439556,0.053809796,-0.6474043
1730745225028,1.3376162,0.5069226,-8.579501,-0.16187929,0.24678956,0.07819075,0.76007324,0.0046244967,0.05271383,-0.6476793
1730745225029,1.3376162,0.5069226,-8.579501,-0.16187929,0.24678956,0.07819075,0.7601614,0.0045580505,0.05272572,-0.64757544
1730745225030,1.3376162,0.5069226,-8.579501,-0.16187929,0.24678956,0.07819075,0.7603515,0.0044857906,0.053687714,-0.64727366
1730745225032,0.83215475,0.4841649,-9.099337,-0.16187929,0.24678956,0.07819075,0.7603515,0.0044857906,0.053687714,-0.64727366
1730745225034,0.48120642,0.6889846,-9.676664,-0.16187929,0.24678956,0.07819075,0.7603515,0.0044857906,0.053687714,-0.64727366
1730745225035,0.520733,0.86146426,-10.027613,-0.16187929,0.24678956,0.07819075,0.7603515,0.0044857906,0.053687714,-0.64727366
1730745225036,0.68722385,1.253137,-10.075523,-0.16187929,0.24678956,0.07819075,0.7603515,0.0044857906,0.053687714,-0.64727366
1730745225038,0.68722385,1.253137,-10.075523,-0.12660182,0.27855456,0.07513642,0.7603515,0.0044857906,0.053687714,-0.64727366
1730745225039,0.68722385,1.253137,-10.075523,-0.084146686,0.27947086,0.06856962,0.7603515,0.0044857906,0.053687714,-0.64727366
1730745225041,0.68722385,1.253137,-10.075523,-0.052839845,0.2507602,0.06246097,0.7603515,0.0044857906,0.053687714,-0.64727366
1730745225042,0.68722385,1.253137,-10.075523,-0.03604105,0.20998493,0.057726767,0.7603515,0.0044857906,0.053687714,-0.64727366
1730745225045,0.68722385,1.253137,-10.075523,-0.03390302,0.17180584,0.0580322,0.7603515,0.0044857906,0.053687714,-0.64727366
1730745225047,0.68722385,1.253137,-10.075523,-0.041233405,0.15332718,0.062002823,0.7603515,0.0044857906,0.053687714,-0.64727366
1730745225049,0.68722385,1.253137,-10.075523,-0.09697486,0.15745051,0.06246097,0.7603515,0.0044857906,0.053687714,-0.64727366
1730745225051,0.68722385,1.253137,-10.075523,-0.17928895,0.1742493,0.074067414,0.7603515,0.0044857906,0.053687714,-0.64727366
1730745225051,0.68722385,1.253137,-10.075523,-0.17928895,0.1742493,0.074067414,0.7605298,0.004783674,0.055071015,-0.6469457
1730745225052,0.68722385,1.253137,-10.075523,-0.17928895,0.1742493,0.074067414,0.7606735,0.0053544953,0.056277454,-0.6466684
1730745225053,0.68722385,1.253137,-10.075523,-0.17928895,0.1742493,0.074067414,0.7608118,0.0058438405,0.057131413,-0.6464265
1730745225053,0.68722385,1.253137,-10.075523,-0.17928895,0.1742493,0.074067414,0.7609691,0.006102273,0.057966385,-0.6461647
1730745225065,0.86689025,1.1932482,-10.141401,-0.17928895,0.1742493,0.074067414,0.7609691,0.006102273,0.057966385,-0.6461647
1730745225067,0.8764724,0.31887186,-9.971317,-0.17928895,0.1742493,0.074067414,0.7609691,0.006102273,0.057966385,-0.6461647
1730745225069,0.7519038,0.1667543,-9.706609,-0.17928895,0.1742493,0.074067414,0.7609691,0.006102273,0.057966385,-0.6461647
1730745225070,0.4416798,0.58358026,-9.516162,-0.17928895,0.1742493,0.074067414,0.7609691,0.006102273,0.057966385,-0.6461647
1730745225071,0.4416798,0.58358026,-9.516162,-0.23976462,0.1957823,0.105068825,0.7609691,0.006102273,0.057966385,-0.6461647
1730745225073,0.4416798,0.58358026,-9.516162,-0.29168814,0.20112738,0.1385137,0.7609691,0.006102273,0.057966385,-0.6461647
1730745225074,0.4416798,0.58358026,-9.516162,-0.32910365,0.20754147,0.16814066,0.7609691,0.006102273,0.057966385,-0.6461647
1730745225076,0.4416798,0.58358026,-9.516162,-0.3408628,0.22861631,0.19257528,0.7609691,0.006102273,0.057966385,-0.6461647
1730745225077,0.4416798,0.58358026,-9.516162,-0.32375857,0.26297748,0.19700404,0.7609691,0.006102273,0.057966385,-0.6461647
1730745225079,0.4416798,0.58358026,-9.516162,-0.27748555,0.28848112,0.1815797,0.7609691,0.006102273,0.057966385,-0.6461647
1730745225080,0.4416798,0.58358026,-9.516162,-0.20723604,0.2939789,0.1638646,0.7609691,0.006102273,0.057966385,-0.6461647
1730745225081,0.4416798,0.58358026,-9.516162,-0.13454308,0.28099802,0.16447547,0.7609691,0.006102273,0.057966385,-0.6461647
1730745225082,0.4416798,0.58358026,-9.516162,-0.13454308,0.28099802,0.16447547,0.7612172,0.0059628156,0.05929359,-0.64575326
1730745225083,0.4416798,0.58358026,-9.516162,-0.13454308,0.28099802,0.16447547,0.7616487,0.0054959506,0.06102275,-0.64508706
1730745225083,0.4416798,0.58358026,-9.516162,-0.13454308,0.28099802,0.16447547,0.7621914,0.005089747,0.06299477,-0.6442593
1730745225084,0.4416798,0.58358026,-9.516162,-0.13454308,0.28099802,0.16447547,0.7626618,0.005135901,0.064849146,-0.6435178
1730745225106,0.2991445,0.60514027,-9.544909,-0.13454308,0.28099802,0.16447547,0.7626618,0.005135901,0.064849146,-0.6435178
1730745225108,0.3386711,0.7093468,-9.620369,-0.13454308,0.28099802,0.16447547,0.7626618,0.005135901,0.064849146,-0.6435178
1730745225109,0.21649796,0.8746398,-9.676664,-0.13454308,0.28099802,0.16447547,0.7626618,0.005135901,0.064849146,-0.6435178
1730745225111,0.13265365,1.0195707,-9.705411,-0.13454308,0.28099802,0.16447547,0.7626618,0.005135901,0.064849146,-0.6435178
1730745225113,0.13265365,1.0195707,-9.705411,-0.07880162,0.259465,0.18616119,0.7626618,0.005135901,0.064849146,-0.6435178
1730745225114,0.13265365,1.0195707,-9.705411,-0.04352415,0.23564127,0.21044308,0.7626618,0.005135901,0.064849146,-0.6435178
1730745225115,0.13265365,1.0195707,-9.705411,-0.018020526,0.2218968,0.22143865,0.7626618,0.005135901,0.064849146,-0.6435178
1730745225116,0.13265365,1.0195707,-9.705411,0.013439035,0.2191479,0.21868975,0.7626618,0.005135901,0.064849146,-0.6435178
1730745225118,0.13265365,1.0195707,-9.705411,0.04138612,0.22510384,0.21471913,0.7626618,0.005135901,0.064849146,-0.6435178
1730745225119,0.13265365,1.0195707,-9.705411,0.0571159,0.23105977,0.2182316,0.7626618,0.005135901,0.064849146,-0.6435178
1730745225120,0.13265365,1.0195707,-9.705411,0.058490347,0.23350324,0.23151793,0.7626618,0.005135901,0.064849146,-0.6435178
1730745225122,0.13265365,1.0195707,-9.705411,0.05009095,0.23105977,0.24755314,0.7626618,0.005135901,0.064849146,-0.6435178
1730745225122,0.13265365,1.0195707,-9.705411,0.05009095,0.23105977,0.24755314,0.76315415,0.005610707,0.066236496,-0.6427885
1730745225123,0.13265365,1.0195707,-9.705411,0.05009095,0.23105977,0.24755314,0.7637634,0.006278637,0.06723092,-0.64195496
1730745225124,0.13265365,1.0195707,-9.705411,0.05009095,0.23105977,0.24755314,0.76438105,0.007164666,0.06799713,-0.6411293
1730745225124,0.13265365,1.0195707,-9.705411,0.05009095,0.23105977,0.24755314,0.76502764,0.008195905,0.06869075,-0.64027125
1730745225147,0.017667174,1.0495151,-9.8192,0.05009095,0.23105977,0.24755314,0.76502764,0.008195905,0.06869075,-0.64027125
1730745225148,-0.067374885,1.0507128,-9.752124,0.05009095,0.23105977,0.24755314,0.76502764,0.008195905,0.06869075,-0.64027125
1730745225150,-0.23865688,1.0914372,-9.742542,0.05009095,0.23105977,0.24755314,0.76502764,0.008195905,0.06869075,-0.64027125
1730745225152,-0.3799944,1.2267859,-9.846748,0.05009095,0.23105977,0.24755314,0.76502764,0.008195905,0.06869075,-0.64027125
1730745225153,-0.3799944,1.2267859,-9.846748,0.032986723,0.21762075,0.25518894,0.76502764,0.008195905,0.06869075,-0.64027125
1730745225155,-0.3799944,1.2267859,-9.846748,0.00992656,0.20066923,0.25442538,0.76502764,0.008195905,0.06869075,-0.64027125
1730745225157,-0.3799944,1.2267859,-9.846748,-0.013286319,0.1947133,0.2509129,0.76502764,0.008195905,0.06869075,-0.64027125
1730745225158,-0.3799944,1.2267859,-9.846748,-0.027794369,0.19730948,0.24495697,0.76502764,0.008195905,0.06869075,-0.64027125
1730745225160,-0.3799944,1.2267859,-9.846748,-0.03268129,0.20219639,0.23640485,0.76502764,0.008195905,0.06869075,-0.64027125
1730745225162,-0.3799944,1.2267859,-9.846748,-0.03390302,0.20234911,0.22540927,0.76502764,0.008195905,0.06869075,-0.64027125
1730745225163,-0.3799944,1.2267859,-9.846748,-0.03283401,0.19364429,0.2144137,0.76502764,0.008195905,0.06869075,-0.64027125
1730745225164,-0.3799944,1.2267859,-9.846748,-0.029321533,0.18387043,0.20112738,0.76502764,0.008195905,0.06869075,-0.64027125
1730745225165,-0.3799944,1.2267859,-9.846748,-0.029321533,0.18387043,0.20112738,0.76574934,0.00916066,0.0693923,-0.639319
1730745225166,-0.3799944,1.2267859,-9.846748,-0.029321533,0.18387043,0.20112738,0.7664865,0.009901418,0.07013501,-0.63834274
1730745225166,-0.3799944,1.2267859,-9.846748,-0.029321533,0.18387043,0.20112738,0.7671887,0.010539738,0.070967734,-0.6373964
1730745225167,-0.3799944,1.2267859,-9.846748,-0.029321533,0.18387043,0.20112738,0.7678278,0.011141919,0.07180432,-0.63652223
1730745225186,-0.51174974,1.3633324,-9.865912,-0.029321533,0.18387043,0.20112738,0.7678278,0.011141919,0.07180432,-0.63652223
1730745225188,-0.54289186,1.1417438,-9.846748,-0.029321533,0.18387043,0.20112738,0.7678278,0.011141919,0.07180432,-0.63652223
1730745225189,-0.48779428,0.9117709,-9.675467,-0.029321533,0.18387043,0.20112738,0.7678278,0.011141919,0.07180432,-0.63652223
1730745225190,-0.49857426,0.8159488,-9.590425,-0.029321533,0.18387043,0.20112738,0.7678278,0.011141919,0.07180432,-0.63652223
1730745225192,-0.49857426,0.8159488,-9.590425,-0.020922136,0.17256944,0.19257528,0.7678278,0.011141919,0.07180432,-0.63652223
1730745225193,-0.49857426,0.8159488,-9.590425,-0.0125227375,0.16264287,0.19624045,0.7678278,0.011141919,0.07180432,-0.63652223
1730745225194,-0.49857426,0.8159488,-9.590425,-0.008857546,0.15027285,0.20845777,0.7678278,0.011141919,0.07180432,-0.63652223
1730745225196,-0.49857426,0.8159488,-9.590425,-0.0065668016,0.13790283,0.21105394,0.7678278,0.011141919,0.07180432,-0.63652223
1730745225197,-0.49857426,0.8159488,-9.590425,0.0030543262,0.13041973,0.2049453,0.7678278,0.011141919,0.07180432,-0.63652223
1730745225198,-0.49857426,0.8159488,-9.590425,0.020005837,0.12782355,0.18891008,0.7678278,0.011141919,0.07180432,-0.63652223
1730745225200,-0.49857426,0.8159488,-9.590425,0.038026363,0.124005646,0.1740966,0.7678278,0.011141919,0.07180432,-0.63652223
1730745225201,-0.49857426,0.8159488,-9.590425,0.058643065,0.118966006,0.16050485,0.7678278,0.011141919,0.07180432,-0.63652223
1730745225201,-0.49857426,0.8159488,-9.590425,0.058643065,0.118966006,0.16050485,0.7684003,0.011713064,0.072549075,-0.6357362
1730745225202,-0.49857426,0.8159488,-9.590425,0.058643065,0.118966006,0.16050485,0.7689954,0.012261624,0.07317512,-0.63493407
1730745225203,-0.49857426,0.8159488,-9.590425,0.058643065,0.118966006,0.16050485,0.7696029,0.012777701,0.07368709,-0.6341281
1730745225203,-0.49857426,0.8159488,-9.590425,0.058643065,0.118966006,0.16050485,0.77013516,0.013365514,0.0740718,-0.63342464
1730745225226,-0.5452875,0.9213531,-9.580842,0.058643065,0.118966006,0.16050485,0.77013516,0.013365514,0.0740718,-0.63342464
1730745225227,-0.64829624,1.027955,-9.590425,0.058643065,0.118966006,0.16050485,0.77013516,0.013365514,0.0740718,-0.63342464
1730745225229,-0.8195782,1.0686795,-9.637137,0.058643065,0.118966006,0.16050485,0.77013516,0.013365514,0.0740718,-0.63342464
1730745225230,-1.0375733,1.1860615,-9.694631,0.058643065,0.118966006,0.16050485,0.77013516,0.013365514,0.0740718,-0.63342464
1730745225231,-1.0375733,1.1860615,-9.694631,0.07422013,0.112704635,0.14813483,0.77013516,0.013365514,0.0740718,-0.63342464
1730745225233,-1.0375733,1.1860615,-9.694631,0.08750644,0.10277808,0.13713925,0.77013516,0.013365514,0.0740718,-0.63342464
1730745225235,-1.0375733,1.1860615,-9.694631,0.099571034,0.09773844,0.12599096,0.77013516,0.013365514,0.0740718,-0.63342464
1730745225236,-1.0375733,1.1860615,-9.694631,0.10797043,0.09025534,0.117438845,0.77013516,0.013365514,0.0740718,-0.63342464
1730745225238,-1.0375733,1.1860615,-9.694631,0.11148291,0.08032878,0.10522154,0.77013516,0.013365514,0.0740718,-0.63342464
1730745225239,-1.0375733,1.1860615,-9.694631,0.10522154,0.063224554,0.088422745,0.77013516,0.013365514,0.0740718,-0.63342464
1730745225241,-1.0375733,1.1860615,-9.694631,0.09773844,0.044745877,0.07391469,0.77013516,0.013365514,0.0740718,-0.63342464
1730745225242,-1.0375733,1.1860615,-9.694631,0.101098195,0.021380283,0.06795876,0.77013516,0.013365514,0.0740718,-0.63342464
1730745225243,-1.0375733,1.1860615,-9.694631,0.101098195,0.021380283,0.06795876,0.77058434,0.014051205,0.074303105,-0.6328361
1730745225244,-1.0375733,1.1860615,-9.694631,0.101098195,0.021380283,0.06795876,0.77096385,0.014793602,0.07439176,-0.63234633
1730745225245,-1.0375733,1.1860615,-9.694631,0.101098195,0.021380283,0.06795876,0.77128106,0.015544872,0.07437179,-0.6319437
1730745225245,-1.0375733,1.1860615,-9.694631,0.101098195,0.021380283,0.06795876,0.77151704,0.016168986,0.074259415,-0.63165313
1730745225267,-1.2292175,1.0830528,-9.693433,0.101098195,0.021380283,0.06795876,0.77151704,0.016168986,0.074259415,-0.63165313
1730745225269,-1.3166552,0.9201553,-9.703015,0.101098195,0.021380283,0.06795876,0.77151704,0.016168986,0.074259415,-0.63165313
1730745225271,-1.3477972,0.7680378,-9.542514,0.101098195,0.021380283,0.06795876,0.77151704,0.016168986,0.074259415,-0.63165313
1730745225272,-1.487937,0.9992085,-9.399978,0.101098195,0.021380283,0.06795876,0.77151704,0.016168986,0.074259415,-0.63165313
1730745225273,-1.487937,0.9992085,-9.399978,0.11438452,-0.0096211275,0.06811147,0.77151704,0.016168986,0.074259415,-0.63165313
1730745225274,-1.487937,0.9992085,-9.399978,0.12996158,-0.04062254,0.07070765,0.77151704,0.016168986,0.074259415,-0.63165313
1730745225276,-1.487937,0.9992085,-9.399978,0.13942999,-0.070249505,0.0759,0.77151704,0.016168986,0.074259415,-0.63165313
1730745225277,-1.487937,0.9992085,-9.399978,0.1611157,-0.09636399,0.077121735,0.77151704,0.016168986,0.074259415,-0.63165313
1730745225279,-1.487937,0.9992085,-9.399978,0.21685717,-0.11530081,0.06688975,0.77151704,0.016168986,0.074259415,-0.63165313
1730745225280,-1.487937,0.9992085,-9.399978,0.2687807,-0.14049901,0.049632803,0.77151704,0.016168986,0.074259415,-0.63165313
1730745225281,-1.487937,0.9992085,-9.399978,0.2855795,-0.15653422,0.031154128,0.77151704,0.016168986,0.074259415,-0.63165313
1730745225282,-1.487937,0.9992085,-9.399978,0.2950479,-0.15790866,0.0067195175,0.77151704,0.016168986,0.074259415,-0.63165313
1730745225283,-1.487937,0.9992085,-9.399978,0.2950479,-0.15790866,0.0067195175,0.7717276,0.016669475,0.073942855,-0.63141984
1730745225284,-1.487937,0.9992085,-9.399978,0.2950479,-0.15790866,0.0067195175,0.77196926,0.01707229,0.073328644,-0.63118535
1730745225284,-1.487937,0.9992085,-9.399978,0.2950479,-0.15790866,0.0067195175,0.7722121,0.01753866,0.07234055,-0.6309895
1730745225285,-1.487937,0.9992085,-9.399978,0.2950479,-0.15790866,0.0067195175,0.7723713,0.01816052,0.07094439,-0.6309357
1730745225306,-1.5885501,1.2986524,-8.784321,0.2950479,-0.15790866,0.0067195175,0.7723713,0.01816052,0.07094439,-0.6309357
1730745225308,-1.5226727,1.2219948,-8.708861,0.2950479,-0.15790866,0.0067195175,0.7723713,0.01816052,0.07094439,-0.6309357
1730745225310,-1.3250396,0.9500997,-8.803486,0.2950479,-0.15790866,0.0067195175,0.7723713,0.01816052,0.07094439,-0.6309357
1730745225311,-1.2172396,1.2375659,-8.444153,0.2950479,-0.15790866,0.0067195175,0.7723713,0.01816052,0.07094439,-0.6309357
1730745225313,-1.2172396,1.2375659,-8.444153,0.29856038,-0.16157386,-0.020158553,0.7723713,0.01816052,0.07094439,-0.6309357
1730745225314,-1.2172396,1.2375659,-8.444153,0.2680171,-0.17241672,-0.04184427,0.7723713,0.01816052,0.07094439,-0.6309357
1730745225315,-1.2172396,1.2375659,-8.444153,0.21563543,-0.19150625,-0.0571159,0.7723713,0.01816052,0.07094439,-0.6309357
1730745225317,-1.2172396,1.2375659,-8.444153,0.17180584,-0.2182316,-0.06994407,0.7723713,0.01816052,0.07094439,-0.6309357
1730745225318,-1.2172396,1.2375659,-8.444153,0.1947133,-0.20861048,-0.092240654,0.7723713,0.01816052,0.07094439,-0.6309357
1730745225319,-1.2172396,1.2375659,-8.444153,0.21533,-0.19272798,-0.102319926,0.7723713,0.01816052,0.07094439,-0.6309357
1730745225320,-1.2172396,1.2375659,-8.444153,0.11636983,-0.14752395,-0.072540246,0.7723713,0.01816052,0.07094439,-0.6309357
1730745225321,-1.2172396,1.2375659,-8.444153,0.033292156,-0.055588737,-0.063988134,0.7723713,0.01816052,0.07094439,-0.6309357
1730745225322,-1.2172396,1.2375659,-8.444153,0.033292156,-0.055588737,-0.063988134,0.77238524,0.018827612,0.069412276,-0.6310694
1730745225323,-1.2172396,1.2375659,-8.444153,0.033292156,-0.055588737,-0.063988134,0.7722808,0.019195914,0.06795948,-0.63134414
1730745225323,-1.2172396,1.2375659,-8.444153,0.033292156,-0.055588737,-0.063988134,0.772078,0.019295441,0.06655351,-0.6317388
1730745225324,-1.2172396,1.2375659,-8.444153,0.033292156,-0.055588737,-0.063988134,0.7718627,0.019352311,0.065433465,-0.6321171
1730745225347,-1.1669331,1.4004633,-7.9698334,0.033292156,-0.055588737,-0.063988134,0.7718627,0.019352311,0.065433465,-0.6321171
1730745225349,-1.1262088,0.75606,-8.027327,0.033292156,-0.055588737,-0.063988134,0.7718627,0.019352311,0.065433465,-0.6321171
1730745225350,-1.2172396,0.2961141,-8.38666,0.033292156,-0.055588737,-0.063988134,0.7718627,0.019352311,0.065433465,-0.6321171
1730745225351,-1.3993015,0.30809182,-8.832232,0.033292156,-0.055588737,-0.063988134,0.7718627,0.019352311,0.065433465,-0.6321171
1730745225353,-1.3993015,0.30809182,-8.832232,0.00076358154,0.006414085,-0.08750644,0.7718627,0.019352311,0.065433465,-0.6321171
1730745225354,-1.3993015,0.30809182,-8.832232,-0.06093381,0.05390886,-0.09101892,0.7718627,0.019352311,0.065433465,-0.6321171
1730745225355,-1.3993015,0.30809182,-8.832232,-0.14187345,0.08781188,-0.06490443,0.7718627,0.019352311,0.065433465,-0.6321171
1730745225357,-1.3993015,0.30809182,-8.832232,-0.18875736,0.1301143,-0.03176499,0.7718627,0.019352311,0.065433465,-0.6321171
1730745225358,-1.3993015,0.30809182,-8.832232,-0.18341228,0.18188512,-0.015271631,0.7718627,0.019352311,0.065433465,-0.6321171
1730745225359,-1.3993015,0.30809182,-8.832232,-0.13713925,0.21960606,-0.018478673,0.7718627,0.019352311,0.065433465,-0.6321171
1730745225361,-1.3993015,0.30809182,-8.832232,-0.07651087,0.23151793,-0.028863383,0.7718627,0.019352311,0.065433465,-0.6321171
1730745225362,-1.3993015,0.30809182,-8.832232,-0.030543262,0.2237294,-0.039095376,0.7718627,0.019352311,0.065433465,-0.6321171
1730745225363,-1.3993015,0.30809182,-8.832232,-0.030543262,0.2237294,-0.039095376,0.77161384,0.019363923,0.06520554,-0.632444
1730745225363,-1.3993015,0.30809182,-8.832232,-0.030543262,0.2237294,-0.039095376,0.77136916,0.01917417,0.06576346,-0.6326904
1730745225364,-1.3993015,0.30809182,-8.832232,-0.030543262,0.2237294,-0.039095376,0.77124506,0.01898782,0.06691471,-0.63272667
1730745225364,-1.3993015,0.30809182,-8.832232,-0.030543262,0.2237294,-0.039095376,0.77109694,0.01926966,0.06811325,-0.63277084
1730745225386,-1.461586,0.7309067,-9.1724,-0.030543262,0.2237294,-0.039095376,0.77109694,0.01926966,0.06811325,-0.63277084
1730745225388,-1.259162,0.9776485,-9.305354,-0.030543262,0.2237294,-0.039095376,0.77109694,0.01926966,0.06811325,-0.63277084
1730745225390,-1.0315845,0.8602665,-9.600007,-0.030543262,0.2237294,-0.039095376,0.77109694,0.01926966,0.06811325,-0.63277084
1730745225391,-0.86150026,0.73330224,-9.372429,-0.030543262,0.2237294,-0.039095376,0.77109694,0.01926966,0.06811325,-0.63277084
1730745225392,-0.86150026,0.73330224,-9.372429,-0.008857546,0.20250183,-0.04520403,0.77109694,0.01926966,0.06811325,-0.63277084
1730745225393,-0.86150026,0.73330224,-9.372429,-0.013744468,0.1779145,-0.040011674,0.77109694,0.01926966,0.06811325,-0.63277084
1730745225395,-0.86150026,0.73330224,-9.372429,-0.032070424,0.15714508,-0.02733622,0.77109694,0.01926966,0.06811325,-0.63277084
1730745225397,-0.86150026,0.73330224,-9.372429,-0.052687127,0.14248432,-0.012370021,0.77109694,0.01926966,0.06811325,-0.63277084
1730745225398,-0.86150026,0.73330224,-9.372429,-0.07086037,0.12293663,0.0013744468,0.77109694,0.01926966,0.06811325,-0.63277084
1730745225400,-0.86150026,0.73330224,-9.372429,-0.080634214,0.10567969,0.010231993,0.77109694,0.01926966,0.06811325,-0.63277084
1730745225402,-0.86150026,0.73330224,-9.372429,-0.07467828,0.09330966,0.012675454,0.77109694,0.01926966,0.06811325,-0.63277084
1730745225403,-0.86150026,0.73330224,-9.372429,-0.071013086,0.09697486,0.017562376,0.77109694,0.01926966,0.06811325,-0.63277084
1730745225404,-0.86150026,0.73330224,-9.372429,-0.071013086,0.09697486,0.017562376,0.7708944,0.019832773,0.0690382,-0.63289994
1730745225405,-0.86150026,0.73330224,-9.372429,-0.071013086,0.09697486,0.017562376,0.7707346,0.020280633,0.06979634,-0.6329972
1730745225405,-0.86150026,0.73330224,-9.372429,-0.071013086,0.09697486,0.017562376,0.7706707,0.020492302,0.07051738,-0.6329883
1730745225406,-0.86150026,0.73330224,-9.372429,-0.071013086,0.09697486,0.017562376,0.7706705,0.020546589,0.07115342,-0.6329155
1730745225427,-0.70698714,0.8566732,-9.3161335,-0.071013086,0.09697486,0.017562376,0.7706705,0.020546589,0.07115342,-0.6329155
1730745225429,-0.56684744,0.7105445,-9.505383,-0.071013086,0.09697486,0.017562376,0.7706705,0.020546589,0.07115342,-0.6329155
1730745225430,-0.40394998,0.7955866,-9.590425,-0.071013086,0.09697486,0.017562376,0.7706705,0.020546589,0.07115342,-0.6329155
1730745225431,-0.2973479,0.94770414,-9.524547,-0.071013086,0.09697486,0.017562376,0.7706705,0.020546589,0.07115342,-0.6329155
1730745225433,-0.2973479,0.94770414,-9.524547,-0.087964594,0.088422745,0.028863383,0.7706705,0.020546589,0.07115342,-0.6329155
1730745225434,-0.2973479,0.94770414,-9.524547,-0.077121735,0.074830994,0.02031127,0.7706705,0.020546589,0.07115342,-0.6329155
1730745225435,-0.2973479,0.94770414,-9.524547,-0.026419923,0.044745877,-0.004428773,0.7706705,0.020546589,0.07115342,-0.6329155
1730745225436,-0.2973479,0.94770414,-9.524547,0.023060163,0.018478673,-0.018020526,0.7706705,0.020546589,0.07115342,-0.6329155
1730745225437,-0.2973479,0.94770414,-9.524547,0.055741455,0.009468411,-0.014660766,0.7706705,0.020546589,0.07115342,-0.6329155
1730745225438,-0.2973479,0.94770414,-9.524547,0.08735373,0.010537425,-0.0076358155,0.7706705,0.020546589,0.07115342,-0.6329155
1730745225440,-0.2973479,0.94770414,-9.524547,0.1067487,0.017715093,-0.0041233404,0.7706705,0.020546589,0.07115342,-0.6329155
1730745225441,-0.2973479,0.94770414,-9.524547,0.10919216,0.023823744,-0.0067195175,0.7706705,0.020546589,0.07115342,-0.6329155
1730745225441,-0.2973479,0.94770414,-9.524547,0.10919216,0.023823744,-0.0067195175,0.770719,0.020543588,0.07176826,-0.6327873
1730745225442,-0.2973479,0.94770414,-9.524547,0.10919216,0.023823744,-0.0067195175,0.77072024,0.020557404,0.0721441,-0.63274235
1730745225443,-0.2973479,0.94770414,-9.524547,0.10919216,0.023823744,-0.0067195175,0.77067107,0.020743353,0.07210988,-0.6328003
1730745225444,-0.2973479,0.94770414,-9.524547,0.10919216,0.023823744,-0.0067195175,0.7706366,0.021149699,0.071872324,-0.6328556
1730745225467,-0.23865688,1.0243618,-9.4958,0.10919216,0.023823744,-0.0067195175,0.7706366,0.021149699,0.071872324,-0.6328556
1730745225468,-0.28656793,1.0051974,-9.609589,0.10919216,0.023823744,-0.0067195175,0.7706366,0.021149699,0.071872324,-0.6328556
1730745225470,-0.3248967,1.0435262,-9.771289,0.10919216,0.023823744,-0.0067195175,0.7706366,0.021149699,0.071872324,-0.6328556
1730745225471,-0.40035653,1.1022172,-9.875495,0.10919216,0.023823744,-0.0067195175,0.7706366,0.021149699,0.071872324,-0.6328556
1730745225472,-0.40035653,1.1022172,-9.875495,0.09468412,0.027641652,-0.009010263,0.7706366,0.021149699,0.071872324,-0.6328556
1730745225473,-0.40035653,1.1022172,-9.875495,0.07162395,0.025350908,-0.011301007,0.7706366,0.021149699,0.071872324,-0.6328556
1730745225474,-0.40035653,1.1022172,-9.875495,0.046120327,0.02443461,-0.009773844,0.7706366,0.021149699,0.071872324,-0.6328556
1730745225476,-0.40035653,1.1022172,-9.875495,0.023060163,0.023365596,-0.0047342055,0.7706366,0.021149699,0.071872324,-0.6328556
1730745225477,-0.40035653,1.1022172,-9.875495,0.004886922,0.024740042,-0.0033597588,0.7706366,0.021149699,0.071872324,-0.6328556
1730745225478,-0.40035653,1.1022172,-9.875495,-0.008399397,0.02733622,-0.0056505036,0.7706366,0.021149699,0.071872324,-0.6328556
1730745225479,-0.40035653,1.1022172,-9.875495,-0.01817324,0.029932396,-0.012980887,0.7706366,0.021149699,0.071872324,-0.6328556
1730745225480,-0.40035653,1.1022172,-9.875495,-0.025503624,0.030085113,-0.021380283,0.7706366,0.021149699,0.071872324,-0.6328556
1730745225481,-0.40035653,1.1022172,-9.875495,-0.025503624,0.030085113,-0.021380283,0.7705917,0.021609576,0.071644746,-0.6329206
1730745225482,-0.40035653,1.1022172,-9.875495,-0.025503624,0.030085113,-0.021380283,0.7705457,0.021922966,0.071537696,-0.6329779
1730745225482,-0.40035653,1.1022172,-9.875495,-0.025503624,0.030085113,-0.021380283,0.7705211,0.022075146,0.07156424,-0.63299966
1730745225483,-0.40035653,1.1022172,-9.875495,-0.025503624,0.030085113,-0.021380283,0.7704812,0.022133466,0.071696945,-0.6330312
1730745225507,-0.4662342,1.1609082,-9.941373,-0.025503624,0.030085113,-0.021380283,0.7704812,0.022133466,0.071696945,-0.6330312
1730745225509,-0.5045631,1.1417438,-9.912626,-0.025503624,0.030085113,-0.021380283,0.7704812,0.022133466,0.071696945,-0.6330312
1730745225511,-0.5333097,1.1225795,-9.779673,-0.025503624,0.030085113,-0.021380283,0.7704812,0.022133466,0.071696945,-0.6330312
1730745225512,-0.52372754,1.1225795,-9.628754,-0.025503624,0.030085113,-0.021380283,0.7704812,0.022133466,0.071696945,-0.6330312
1730745225513,-0.52372754,1.1225795,-9.628754,-0.0364992,0.025198191,-0.024892759,0.7704812,0.022133466,0.071696945,-0.6330312
1730745225514,-0.52372754,1.1225795,-9.628754,-0.046120327,0.019089539,-0.028405234,0.7704812,0.022133466,0.071696945,-0.6330312
1730745225516,-0.52372754,1.1225795,-9.628754,-0.0571159,0.011759156,-0.028252518,0.7704812,0.022133466,0.071696945,-0.6330312
1730745225517,-0.52372754,1.1225795,-9.628754,-0.06566802,0.001985312,-0.02687807,0.7704812,0.022133466,0.071696945,-0.6330312
1730745225519,-0.52372754,1.1225795,-9.628754,-0.07666359,-0.0053450707,-0.024281893,0.7704812,0.022133466,0.071696945,-0.6330312
1730745225520,-0.52372754,1.1225795,-9.628754,-0.08155051,-0.008857546,-0.022907447,0.7704812,0.022133466,0.071696945,-0.6330312
1730745225521,-0.52372754,1.1225795,-9.628754,-0.08277224,-0.017562376,-0.0290161,0.7704812,0.022133466,0.071696945,-0.6330312
1730745225522,-0.52372754,1.1225795,-9.628754,-0.0804815,-0.02611449,-0.040011674,0.7704812,0.022133466,0.071696945,-0.6330312
1730745225523,-0.52372754,1.1225795,-9.628754,-0.0804815,-0.02611449,-0.040011674,0.7704059,0.022110315,0.07188721,-0.63310206
1730745225524,-0.52372754,1.1225795,-9.628754,-0.0804815,-0.02611449,-0.040011674,0.77031976,0.02197116,0.07210159,-0.6331873
1730745225524,-0.52372754,1.1225795,-9.628754,-0.0804815,-0.02611449,-0.040011674,0.7702478,0.021704992,0.07231618,-0.6332595
1730745225525,-0.52372754,1.1225795,-9.628754,-0.0804815,-0.02611449,-0.040011674,0.77017635,0.021357555,0.07251495,-0.6333356
1730745225548,-0.44706988,1.1417438,-9.638335,-0.0804815,-0.02611449,-0.040011674,0.77017635,0.021357555,0.07251495,-0.6333356
1730745225550,-0.5321119,1.2195992,-9.742542,-0.0804815,-0.02611449,-0.040011674,0.77017635,0.021357555,0.07251495,-0.6333356
1730745225551,-0.5991874,1.1908526,-9.798838,-0.0804815,-0.02611449,-0.040011674,0.77017635,0.021357555,0.07251495,-0.6333356
1730745225552,-0.6590762,1.027955,-9.770091,-0.0804815,-0.02611449,-0.040011674,0.77017635,0.021357555,0.07251495,-0.6333356
1730745225553,-0.6590762,1.027955,-9.770091,-0.07819075,-0.032375857,-0.049632803,0.77017635,0.021357555,0.07251495,-0.6333356
1730745225554,-0.6590762,1.027955,-9.770091,-0.07696902,-0.03848451,-0.060628377,0.77017635,0.021357555,0.07251495,-0.6333356
1730745225556,-0.6590762,1.027955,-9.770091,-0.08323039,-0.0421497,-0.065515295,0.77017635,0.021357555,0.07251495,-0.6333356
1730745225557,-0.6590762,1.027955,-9.770091,-0.09285152,-0.039553523,-0.06536258,0.77017635,0.021357555,0.07251495,-0.6333356
1730745225558,-0.6590762,1.027955,-9.770091,-0.107359566,-0.034513887,-0.0580322,0.77017635,0.021357555,0.07251495,-0.6333356
1730745225559,-0.6590762,1.027955,-9.770091,-0.12660182,-0.027030786,-0.046883907,0.77017635,0.021357555,0.07251495,-0.6333356
1730745225561,-0.6590762,1.027955,-9.770091,-0.1423316,-0.019394971,-0.03573562,0.77017635,0.021357555,0.07251495,-0.6333356
1730745225562,-0.6590762,1.027955,-9.770091,-0.14950927,-0.019394971,-0.029626964,0.77017635,0.021357555,0.07251495,-0.6333356
1730745225563,-0.6590762,1.027955,-9.770091,-0.14950927,-0.019394971,-0.029626964,0.7700555,0.020961108,0.07265011,-0.6334802
1730745225563,-0.6590762,1.027955,-9.770091,-0.14950927,-0.019394971,-0.029626964,0.7698852,0.020519795,0.07275095,-0.6336902
1730745225564,-0.6590762,1.027955,-9.770091,-0.14950927,-0.019394971,-0.029626964,0.769718,0.02001599,0.07292448,-0.6338893
1730745225564,-0.6590762,1.027955,-9.770091,-0.14950927,-0.019394971,-0.029626964,0.76960653,0.019431768,0.0732523,-0.634005
1730745225587,-0.67824054,0.94171524,-9.770091,-0.14950927,-0.019394971,-0.029626964,0.76960653,0.019431768,0.0732523,-0.634005
1730745225589,-0.6602739,0.8938042,-9.760509,-0.14950927,-0.019394971,-0.029626964,0.76960653,0.019431768,0.0732523,-0.634005
1730745225591,-0.6315273,0.8938042,-9.713796,-0.14950927,-0.019394971,-0.029626964,0.76960653,0.019431768,0.0732523,-0.634005
1730745225593,-0.5165409,0.9405175,-9.704213,-0.14950927,-0.019394971,-0.029626964,0.76960653,0.019431768,0.0732523,-0.634005
1730745225594,-0.5165409,0.9405175,-9.704213,-0.1459968,-0.02565634,-0.028405234,0.76960653,0.019431768,0.0732523,-0.634005
1730745225595,-0.5165409,0.9405175,-9.704213,-0.13026701,-0.03313944,-0.030848695,0.76960653,0.019431768,0.0732523,-0.634005
1730745225596,-0.5165409,0.9405175,-9.704213,-0.10842858,-0.043218717,-0.031001411,0.76960653,0.019431768,0.0732523,-0.634005
1730745225598,-0.5165409,0.9405175,-9.704213,-0.084146686,-0.054519724,-0.027488936,0.76960653,0.019431768,0.0732523,-0.634005
1730745225599,-0.5165409,0.9405175,-9.704213,-0.063682705,-0.06704246,-0.020158553,0.76960653,0.019431768,0.0732523,-0.634005
1730745225600,-0.5165409,0.9405175,-9.704213,-0.05024367,-0.077121735,-0.009162978,0.76960653,0.019431768,0.0732523,-0.634005
1730745225602,-0.5165409,0.9405175,-9.704213,-0.04550946,-0.08827003,0.00061086525,0.76960653,0.019431768,0.0732523,-0.634005
1730745225603,-0.5165409,0.9405175,-9.704213,-0.04795292,-0.10048734,0.004428773,0.76960653,0.019431768,0.0732523,-0.634005
1730745225604,-0.5165409,0.9405175,-9.704213,-0.04795292,-0.10048734,0.004428773,0.76953083,0.01880158,0.07362066,-0.63407326
1730745225604,-0.5165409,0.9405175,-9.704213,-0.04795292,-0.10048734,0.004428773,0.7694578,0.018223904,0.073853865,-0.6341515
1730745225605,-0.5165409,0.9405175,-9.704213,-0.04795292,-0.10048734,0.004428773,0.7694125,0.01774235,0.073866874,-0.63421875
1730745225606,-0.5165409,0.9405175,-9.704213,-0.04795292,-0.10048734,0.004428773,0.76943076,0.01729643,0.07370913,-0.63422716
1730745225628,-0.43988323,0.9201553,-9.580842,-0.04795292,-0.10048734,0.004428773,0.76943076,0.01729643,0.07370913,-0.63422716
1730745225630,-0.3548411,0.89021087,-9.553293,-0.04795292,-0.10048734,0.004428773,0.76943076,0.01729643,0.07370913,-0.63422716
1730745225631,-0.23147023,0.8506843,-9.410758,-0.04795292,-0.10048734,0.004428773,0.76943076,0.01729643,0.07370913,-0.63422716
1730745225633,-0.12726372,0.8015755,-9.325716,-0.04795292,-0.10048734,0.004428773,0.76943076,0.01729643,0.07370913,-0.63422716
1730745225634,-0.12726372,0.8015755,-9.325716,-0.050396383,-0.10919216,0.008246681,0.76943076,0.01729643,0.07370913,-0.63422716
1730745225635,-0.12726372,0.8015755,-9.325716,-0.050396383,-0.118966006,0.013286319,0.76943076,0.01729643,0.07370913,-0.63422716
1730745225636,-0.12726372,0.8015755,-9.325716,-0.04917465,-0.12889257,0.020616703,0.76943076,0.01729643,0.07370913,-0.63422716
1730745225637,-0.12726372,0.8015755,-9.325716,-0.04444045,-0.14004086,0.02687807,0.76943076,0.01729643,0.07370913,-0.63422716
1730745225639,-0.12726372,0.8015755,-9.325716,-0.03359759,-0.15378532,0.028099801,0.76943076,0.01729643,0.07370913,-0.63422716
1730745225640,-0.12726372,0.8015755,-9.325716,-0.019089539,-0.16615535,0.02321288,0.76943076,0.01729643,0.07370913,-0.63422716
1730745225641,-0.12726372,0.8015755,-9.325716,-0.0047342055,-0.17989981,0.010842858,0.76943076,0.01729643,0.07370913,-0.63422716
1730745225642,-0.12726372,0.8015755,-9.325716,0.004886922,-0.19715676,-0.004886922,0.76943076,0.01729643,0.07370913,-0.63422716
1730745225643,-0.12726372,0.8015755,-9.325716,0.004886922,-0.19715676,-0.004886922,0.7694895,0.016789107,0.07346033,-0.6341985
1730745225643,-0.12726372,0.8015755,-9.325716,0.004886922,-0.19715676,-0.004886922,0.7695923,0.016222628,0.07313192,-0.6341265
1730745225644,-0.12726372,0.8015755,-9.325716,0.004886922,-0.19715676,-0.004886922,0.7697326,0.015624631,0.07267535,-0.63402367
1730745225644,-0.12726372,0.8015755,-9.325716,0.004886922,-0.19715676,-0.004886922,0.7698479,0.015035815,0.07203806,-0.6339705
1730745225668,-0.03144163,0.8195421,-9.306552,0.004886922,-0.19715676,-0.004886922,0.7698479,0.015035815,0.07203806,-0.6339705
1730745225669,0.015271604,0.8003777,-9.411956,0.004886922,-0.19715676,-0.004886922,0.7698479,0.015035815,0.07203806,-0.6339705
1730745225670,0.034436047,0.8003777,-9.50658,0.004886922,-0.19715676,-0.004886922,0.7698479,0.015035815,0.07203806,-0.6339705
1730745225671,0.07276487,0.8375088,-9.58204,0.004886922,-0.19715676,-0.004886922,0.7698479,0.015035815,0.07203806,-0.6339705
1730745225673,0.07276487,0.8375088,-9.58204,0.011911872,-0.21197024,-0.019547688,0.7698479,0.015035815,0.07203806,-0.6339705
1730745225674,0.07276487,0.8375088,-9.58204,0.02031127,-0.22556199,-0.028099801,0.7698479,0.015035815,0.07203806,-0.6339705
1730745225675,0.07276487,0.8375088,-9.58204,0.032375857,-0.23808473,-0.032986723,0.7698479,0.015035815,0.07203806,-0.6339705
1730745225677,0.07276487,0.8375088,-9.58204,0.050396383,-0.2518292,-0.039095376,0.7698479,0.015035815,0.07203806,-0.6339705
1730745225678,0.07276487,0.8375088,-9.58204,0.07452556,-0.26435193,-0.042913284,0.7698479,0.015035815,0.07203806,-0.6339705
1730745225679,0.07276487,0.8375088,-9.58204,0.10247265,-0.2780964,-0.043066,0.7698479,0.015035815,0.07203806,-0.6339705
1730745225680,0.07276487,0.8375088,-9.58204,0.13500121,-0.30176744,-0.046731193,0.7698479,0.015035815,0.07203806,-0.6339705
1730745225681,0.07276487,0.8375088,-9.58204,0.17486018,-0.32925636,-0.06154467,0.7698479,0.015035815,0.07203806,-0.6339705
1730745225682,0.07276487,0.8375088,-9.58204,0.17486018,-0.32925636,-0.06154467,0.7698867,0.014414137,0.071218275,-0.63403064
1730745225683,0.07276487,0.8375088,-9.58204,0.17486018,-0.32925636,-0.06154467,0.7698768,0.013771899,0.07023303,-0.6341668
1730745225683,0.07276487,0.8375088,-9.58204,0.17486018,-0.32925636,-0.06154467,0.76983625,0.013179926,0.069032826,-0.6343603
1730745225684,0.07276487,0.8375088,-9.58204,0.17486018,-0.32925636,-0.06154467,0.769786,0.012692932,0.06752979,-0.6345929
1730745225709,0.19972908,1.027955,-9.601204,0.17486018,-0.32925636,-0.06154467,0.769786,0.012692932,0.06752979,-0.6345929
1730745225711,0.41892207,1.0638884,-9.601204,0.17486018,-0.32925636,-0.06154467,0.769786,0.012692932,0.06752979,-0.6345929
1730745225712,0.72195935,0.91656196,-9.753322,0.17486018,-0.32925636,-0.06154467,0.769786,0.012692932,0.06752979,-0.6345929
1730745225713,1.1807075,1.0459218,-10.057557,0.17486018,-0.32925636,-0.06154467,0.769786,0.012692932,0.06752979,-0.6345929
1730745225715,1.1807075,1.0459218,-10.057557,0.21090123,-0.3640757,-0.086132,0.769786,0.012692932,0.06752979,-0.6345929
1730745225716,1.1807075,1.0459218,-10.057557,0.2359467,-0.40011674,-0.111635625,0.769786,0.012692932,0.06752979,-0.6345929
1730745225717,1.1807075,1.0459218,-10.057557,0.2489276,-0.4370741,-0.12736541,0.769786,0.012692932,0.06752979,-0.6345929
1730745225719,1.1807075,1.0459218,-10.057557,0.23777929,-0.47158796,-0.13423763,0.769786,0.012692932,0.06752979,-0.6345929
1730745225720,1.1807075,1.0459218,-10.057557,0.20861048,-0.49464813,-0.12522738,0.769786,0.012692932,0.06752979,-0.6345929
1730745225721,1.1807075,1.0459218,-10.057557,0.18799378,-0.50442195,-0.10781772,0.769786,0.012692932,0.06752979,-0.6345929
1730745225722,1.1807075,1.0459218,-10.057557,0.19776763,-0.49464813,-0.10797043,0.769786,0.012692932,0.06752979,-0.6345929
1730745225723,1.1807075,1.0459218,-10.057557,0.204029,-0.45158213,-0.129198,0.769786,0.012692932,0.06752979,-0.6345929
1730745225724,1.1807075,1.0459218,-10.057557,0.204029,-0.45158213,-0.129198,0.7696535,0.012300612,0.06557931,-0.6349658
1730745225724,1.1807075,1.0459218,-10.057557,0.204029,-0.45158213,-0.129198,0.7694059,0.011855707,0.06319905,-0.63551545
1730745225725,1.1807075,1.0459218,-10.057557,0.204029,-0.45158213,-0.129198,0.7691408,0.011131168,0.060626958,-0.63609993
1730745225725,1.1807075,1.0459218,-10.057557,0.204029,-0.45158213,-0.129198,0.7689255,0.0102677,0.05803888,-0.6366159
1730745225748,1.5172825,1.3309925,-9.470647,0.204029,-0.45158213,-0.129198,0.7689255,0.0102677,0.05803888,-0.6366159
1730745225750,1.7328821,1.7801583,-8.380671,0.204029,-0.45158213,-0.129198,0.7689255,0.0102677,0.05803888,-0.6366159
1730745225751,1.7244978,1.7813561,-7.840474,0.204029,-0.45158213,-0.129198,0.7689255,0.0102677,0.05803888,-0.6366159
1730745225753,1.5831602,1.1201838,-7.9638453,0.204029,-0.45158213,-0.129198,0.7689255,0.0102677,0.05803888,-0.6366159
1730745225754,1.5831602,1.1201838,-7.9638453,0.16432275,-0.3820962,-0.13439035,0.7689255,0.0102677,0.05803888,-0.6366159
1730745225755,1.5831602,1.1201838,-7.9638453,0.11407909,-0.2669481,-0.12156218,0.7689255,0.0102677,0.05803888,-0.6366159
1730745225756,1.5831602,1.1201838,-7.9638453,0.009468411,-0.15393804,-0.09590584,0.7689255,0.0102677,0.05803888,-0.6366159
1730745225757,1.5831602,1.1201838,-7.9638453,-0.13164146,-0.03176499,-0.061391957,0.7689255,0.0102677,0.05803888,-0.6366159
1730745225759,1.5831602,1.1201838,-7.9638453,-0.27137688,0.07666359,-0.013439035,0.7689255,0.0102677,0.05803888,-0.6366159
1730745225761,1.5831602,1.1201838,-7.9638453,-0.3941608,0.17134771,0.04917465,0.7689255,0.0102677,0.05803888,-0.6366159
1730745225762,1.5831602,1.1201838,-7.9638453,-0.48075095,0.25579983,0.11285736,0.7689255,0.0102677,0.05803888,-0.6366159
1730745225763,1.5831602,1.1201838,-7.9638453,-0.5018258,0.33368513,0.15393804,0.7689255,0.0102677,0.05803888,-0.6366159
1730745225764,1.5831602,1.1201838,-7.9638453,-0.5018258,0.33368513,0.15393804,0.7686216,0.009575354,0.055804446,-0.63719314
1730745225764,1.5831602,1.1201838,-7.9638453,-0.5018258,0.33368513,0.15393804,0.76834035,0.009063197,0.05469222,-0.637636
1730745225765,1.5831602,1.1201838,-7.9638453,-0.5018258,0.33368513,0.15393804,0.76822525,0.008338425,0.055244807,-0.6377371
1730745225766,1.5831602,1.1201838,-7.9638453,-0.5018258,0.33368513,0.15393804,0.7684269,0.0073681073,0.05727706,-0.6373266
1730745225791,1.1196209,0.547647,-8.550755,-0.5018258,0.33368513,0.15393804,0.7684269,0.0073681073,0.05727706,-0.6373266
1730745225794,0.5674463,0.63987577,-9.279003,-0.5018258,0.33368513,0.15393804,0.7684269,0.0073681073,0.05727706,-0.6373266
1730745225795,0.13504922,1.3262013,-10.103072,-0.5018258,0.33368513,0.15393804,0.7684269,0.0073681073,0.05727706,-0.6373266
1730745225796,0.18176246,2.1418867,-10.425274,-0.5018258,0.33368513,0.15393804,0.7684269,0.0073681073,0.05727706,-0.6373266
1730745225797,0.18176246,2.1418867,-10.425274,-0.45173484,0.39599338,0.16142114,0.7684269,0.0073681073,0.05727706,-0.6373266
1730745225799,0.18176246,2.1418867,-10.425274,-0.3472769,0.43218717,0.13942999,0.7684269,0.0073681073,0.05727706,-0.6373266
1730745225800,0.18176246,2.1418867,-10.425274,-0.22128594,0.44211373,0.10262536,0.7684269,0.0073681073,0.05727706,-0.6373266
1730745225801,0.18176246,2.1418867,-10.425274,-0.107665,0.4166101,0.06505715,0.7684269,0.0073681073,0.05727706,-0.6373266
1730745225802,0.18176246,2.1418867,-10.425274,-0.0364992,0.36285394,0.038026363,0.7684269,0.0073681073,0.05727706,-0.6373266
1730745225804,0.18176246,2.1418867,-10.425274,-0.015118915,0.29856038,0.024892759,0.7684269,0.0073681073,0.05727706,-0.6373266
1730745225805,0.18176246,2.1418867,-10.425274,-0.034972034,0.2396119,0.021991149,0.7684269,0.0073681073,0.05727706,-0.6373266
1730745225806,0.18176246,2.1418867,-10.425274,-0.077579886,0.19685133,0.02397646,0.7684269,0.0073681073,0.05727706,-0.6373266
1730745225806,0.18176246,2.1418867,-10.425274,-0.077579886,0.19685133,0.02397646,0.76880836,0.006740051,0.06005446,-0.6366175
1730745225807,0.18176246,2.1418867,-10.425274,-0.077579886,0.19685133,0.02397646,0.76906484,0.007016538,0.06258598,-0.63606066
1730745225807,0.18176246,2.1418867,-10.425274,-0.077579886,0.19685133,0.02397646,0.7691281,0.00793038,0.06433293,-0.635799
1730745225808,0.18176246,2.1418867,-10.425274,-0.077579886,0.19685133,0.02397646,0.7691332,0.008713721,0.06546683,-0.6356668
1730745225830,0.5183375,2.3598819,-10.085106,-0.077579886,0.19685133,0.02397646,0.7691332,0.008713721,0.06546683,-0.6356668
1730745225831,0.8776702,2.1347,-10.133017,-0.077579886,0.19685133,0.02397646,0.7691332,0.008713721,0.06546683,-0.6356668
1730745225832,0.95552564,1.4423856,-9.942571,-0.077579886,0.19685133,0.02397646,0.7691332,0.008713721,0.06546683,-0.6356668
1730745225833,0.85730803,1.0399328,-9.611984,-0.077579886,0.19685133,0.02397646,0.7691332,0.008713721,0.06546683,-0.6356668
1730745225834,0.85730803,1.0399328,-9.611984,-0.15042557,0.17531833,0.043218717,0.7691332,0.008713721,0.06546683,-0.6356668
1730745225835,0.85730803,1.0399328,-9.611984,-0.25702155,0.15775596,0.08109236,0.7691332,0.008713721,0.06546683,-0.6356668
1730745225836,0.85730803,1.0399328,-9.611984,-0.3370449,0.15714508,0.09285152,0.7691332,0.008713721,0.06546683,-0.6356668
1730745225837,0.85730803,1.0399328,-9.611984,-0.37110063,0.15378532,0.08582657,0.7691332,0.008713721,0.06546683,-0.6356668
1730745225839,0.85730803,1.0399328,-9.611984,-0.38560867,0.16264287,0.08231409,0.7691332,0.008713721,0.06546683,-0.6356668
1730745225840,0.85730803,1.0399328,-9.611984,-0.38423425,0.19456059,0.08078693,0.7691332,0.008713721,0.06546683,-0.6356668
1730745225841,0.85730803,1.0399328,-9.611984,-0.3622431,0.22770002,0.06918049,0.7691332,0.008713721,0.06546683,-0.6356668
1730745225842,0.85730803,1.0399328,-9.611984,-0.32834008,0.2509129,0.043066,0.7691332,0.008713721,0.06546683,-0.6356668
1730745225843,0.85730803,1.0399328,-9.611984,-0.32834008,0.2509129,0.043066,0.7691937,0.008941776,0.06652147,-0.6354809
1730745225843,0.85730803,1.0399328,-9.611984,-0.32834008,0.2509129,0.043066,0.76941633,0.008414842,0.06797968,-0.63506424
1730745225844,0.85730803,1.0399328,-9.611984,-0.32834008,0.2509129,0.043066,0.7696438,0.0075388383,0.06970427,-0.6346125
1730745225845,0.85730803,1.0399328,-9.611984,-0.32834008,0.2509129,0.043066,0.76982105,0.006801547,0.071634345,-0.63419074
1730745225870,0.7111794,0.8399043,-9.525744,-0.32834008,0.2509129,0.043066,0.76982105,0.006801547,0.071634345,-0.63419074
1730745225872,0.61775285,0.93692416,-9.525744,-0.32834008,0.2509129,0.043066,0.76982105,0.006801547,0.071634345,-0.63419074
1730745225873,0.55187523,1.081855,-9.516162,-0.32834008,0.2509129,0.043066,0.76982105,0.006801547,0.071634345,-0.63419074
1730745225874,0.49557972,1.1405461,-9.487415,-0.32834008,0.2509129,0.043066,0.76982105,0.006801547,0.071634345,-0.63419074
1730745225875,0.49557972,1.1405461,-9.487415,-0.2848159,0.2554944,0.0070249503,0.76982105,0.006801547,0.071634345,-0.63419074
1730745225877,0.49557972,1.1405461,-9.487415,-0.23411411,0.24648413,-0.033750303,0.76982105,0.006801547,0.071634345,-0.63419074
1730745225878,0.49557972,1.1405461,-9.487415,-0.18600847,0.22876903,-0.07315111,0.76982105,0.006801547,0.071634345,-0.63419074
1730745225880,0.49557972,1.1405461,-9.487415,-0.14492778,0.21365012,-0.09911288,0.76982105,0.006801547,0.071634345,-0.63419074
1730745225881,0.49557972,1.1405461,-9.487415,-0.11591168,0.20861048,-0.112704635,0.76982105,0.006801547,0.071634345,-0.63419074
1730745225882,0.49557972,1.1405461,-9.487415,-0.10140363,0.2096795,-0.12385293,0.76982105,0.006801547,0.071634345,-0.63419074
1730745225883,0.49557972,1.1405461,-9.487415,-0.105068825,0.21212296,-0.13729197,0.76982105,0.006801547,0.071634345,-0.63419074
1730745225884,0.49557972,1.1405461,-9.487415,-0.12095132,0.21609358,-0.15561792,0.76982105,0.006801547,0.071634345,-0.63419074
1730745225885,0.49557972,1.1405461,-9.487415,-0.12095132,0.21609358,-0.15561792,0.76982415,0.006398831,0.07352721,-0.6339746
1730745225885,0.49557972,1.1405461,-9.487415,-0.12095132,0.21609358,-0.15561792,0.76958996,0.006292178,0.0750822,-0.63407767
1730745225886,0.49557972,1.1405461,-9.487415,-0.12095132,0.21609358,-0.15561792,0.76919806,0.006403727,0.07630322,-0.6344062
1730745225887,0.49557972,1.1405461,-9.487415,-0.12095132,0.21609358,-0.15561792,0.7687138,0.0066117253,0.07742442,-0.63485515
1730745225909,0.51474416,1.1213816,-9.477834,-0.12095132,0.21609358,-0.15561792,0.7687138,0.0066117253,0.07742442,-0.63485515
1730745225911,0.4273065,0.9584841,-9.564074,-0.12095132,0.21609358,-0.15561792,0.7687138,0.0066117253,0.07742442,-0.63485515
1730745225912,0.23446459,0.8267288,-9.686247,-0.12095132,0.21609358,-0.15561792,0.7687138,0.0066117253,0.07742442,-0.63485515
1730745225913,0.004491627,0.6458646,-9.8192,-0.12095132,0.21609358,-0.15561792,0.7687138,0.0066117253,0.07742442,-0.63485515
1730745225914,0.004491627,0.6458646,-9.8192,-0.14905111,0.21762075,-0.17363845,0.7687138,0.0066117253,0.07742442,-0.63485515
1730745225915,0.004491627,0.6458646,-9.8192,-0.18310685,0.2191479,-0.1928807,0.7687138,0.0066117253,0.07742442,-0.63485515
1730745225916,0.004491627,0.6458646,-9.8192,-0.22067507,0.22571471,-0.2060143,0.7687138,0.0066117253,0.07742442,-0.63485515
1730745225917,0.004491627,0.6458646,-9.8192,-0.25579983,0.23457226,-0.21197024,0.7687138,0.0066117253,0.07742442,-0.63485515
1730745225918,0.004491627,0.6458646,-9.8192,-0.2874121,0.24113905,-0.21166481,0.7687138,0.0066117253,0.07742442,-0.63485515
1730745225920,0.004491627,0.6458646,-9.8192,-0.31520647,0.2499966,-0.20662516,0.7687138,0.0066117253,0.07742442,-0.63485515
1730745225921,0.004491627,0.6458646,-9.8192,-0.34300083,0.25137106,-0.19776763,0.7687138,0.0066117253,0.07742442,-0.63485515
1730745225922,0.004491627,0.6458646,-9.8192,-0.3707952,0.24923302,-0.18661933,0.7687138,0.0066117253,0.07742442,-0.63485515
1730745225923,0.004491627,0.6458646,-9.8192,-0.3707952,0.24923302,-0.18661933,0.7681179,0.006715132,0.07864951,-0.6354243
1730745225926,0.004491627,0.6458646,-9.8192,-0.3707952,0.24923302,-0.18661933,0.76741135,0.006581154,0.080106676,-0.6360971
1730745225926,0.004491627,0.6458646,-9.8192,-0.3707952,0.24923302,-0.18661933,0.7666561,0.006227732,0.08184214,-0.6367901
1730745225927,0.004491627,0.6458646,-9.8192,-0.3707952,0.24923302,-0.18661933,0.7659185,0.005692321,0.08382067,-0.63742507
1730745225950,-0.26500797,0.44703382,-9.885077,-0.3707952,0.24923302,-0.18661933,0.7659185,0.005692321,0.08382067,-0.63742507
1730745225951,-0.5620563,0.26856524,-9.808419,-0.3707952,0.24923302,-0.18661933,0.7659185,0.005692321,0.08382067,-0.63742507
1730745225952,-0.7548982,0.08770108,-9.723377,-0.3707952,0.24923302,-0.18661933,0.7659185,0.005692321,0.08382067,-0.63742507
1730745225953,-0.80280924,0.031405687,-9.580842,-0.3707952,0.24923302,-0.18661933,0.7659185,0.005692321,0.08382067,-0.63742507
1730745225954,-0.80280924,0.031405687,-9.580842,-0.3950771,0.24816401,-0.17287487,0.7659185,0.005692321,0.08382067,-0.63742507
1730745225955,-0.80280924,0.031405687,-9.580842,-0.41080686,0.24709499,-0.16172658,0.7659185,0.005692321,0.08382067,-0.63742507
1730745225956,-0.80280924,0.031405687,-9.580842,-0.40958515,0.24205536,-0.15302174,0.7659185,0.005692321,0.08382067,-0.63742507
1730745225957,-0.80280924,0.031405687,-9.580842,-0.38774672,0.22953261,-0.14462234,0.7659185,0.005692321,0.08382067,-0.63742507
1730745225958,-0.80280924,0.031405687,-9.580842,-0.34406984,0.20570888,-0.13622294,0.7659185,0.005692321,0.08382067,-0.63742507
1730745225959,-0.80280924,0.031405687,-9.580842,-0.2848159,0.17684549,-0.12797627,0.7659185,0.005692321,0.08382067,-0.63742507
1730745225961,-0.80280924,0.031405687,-9.580842,-0.2182316,0.14172074,-0.11728613,0.7659185,0.005692321,0.08382067,-0.63742507
1730745225962,-0.80280924,0.031405687,-9.580842,-0.1479821,0.10644327,-0.10781772,0.7659185,0.005692321,0.08382067,-0.63742507
1730745225963,-0.80280924,0.031405687,-9.580842,-0.1479821,0.10644327,-0.10781772,0.7652442,0.004959168,0.085981734,-0.637953
1730745225963,-0.80280924,0.031405687,-9.580842,-0.1479821,0.10644327,-0.10781772,0.76463664,0.0041227983,0.08822034,-0.6383816
1730745225964,-0.80280924,0.031405687,-9.580842,-0.1479821,0.10644327,-0.10781772,0.76409155,0.0033667546,0.09022981,-0.6387577
1730745225965,-0.80280924,0.031405687,-9.580842,-0.1479821,0.10644327,-0.10781772,0.7636252,0.002852971,0.09168039,-0.6391112
1730745225989,-0.7944249,-0.06441641,-9.447889,-0.1479821,0.10644327,-0.10781772,0.7636252,0.002852971,0.09168039,-0.6391112
1730745225990,-0.6986028,-0.10394299,-9.391594,-0.1479821,0.10644327,-0.10781772,0.7636252,0.002852971,0.09168039,-0.6391112
1730745225991,-0.6315273,-0.038065314,-9.4862175,-0.1479821,0.10644327,-0.10781772,0.7636252,0.002852971,0.09168039,-0.6391112
1730745225992,-0.697405,0.097283244,-9.685049,-0.1479821,0.10644327,-0.10781772,0.7636252,0.002852971,0.09168039,-0.6391112
1730745225999,-0.697405,0.097283244,-9.685049,-0.08017606,0.07498371,-0.0983493,0.7636252,0.002852971,0.09168039,-0.6391112
1730745226000,-0.697405,0.097283244,-9.685049,-0.018478673,0.04734206,-0.08399397,0.7636252,0.002852971,0.09168039,-0.6391112
1730745226001,-0.697405,0.097283244,-9.685049,0.025198191,0.025961773,-0.068264194,0.7636252,0.002852971,0.09168039,-0.6391112
1730745226002,-0.697405,0.097283244,-9.685049,0.050701816,0.010842858,-0.05009095,0.7636252,0.002852971,0.09168039,-0.6391112
1730745226004,-0.697405,0.097283244,-9.685049,0.0664316,-0.00045814895,-0.034208454,0.7636252,0.002852971,0.09168039,-0.6391112
1730745226005,-0.697405,0.097283244,-9.685049,0.06765333,-0.0053450707,-0.02321288,0.7636252,0.002852971,0.09168039,-0.6391112
1730745226006,-0.697405,0.097283244,-9.685049,0.06414085,-0.0065668016,-0.012064588,0.7636252,0.002852971,0.09168039,-0.6391112
1730745226007,-0.697405,0.097283244,-9.685049,0.054519724,-0.0027488936,0.0025961774,0.7636252,0.002852971,0.09168039,-0.6391112
1730745226008,-0.697405,0.097283244,-9.685049,0.054519724,-0.0027488936,0.0025961774,0.7632442,0.0026442322,0.09245102,-0.6394561
1730745226008,-0.697405,0.097283244,-9.685049,0.054519724,-0.0027488936,0.0025961774,0.76297545,0.0027124728,0.09264194,-0.63974893
1730745226009,-0.697405,0.097283244,-9.685049,0.054519724,-0.0027488936,0.0025961774,0.7628271,0.0029166823,0.0925132,-0.6399435
1730745226009,-0.697405,0.097283244,-9.685049,0.054519724,-0.0027488936,0.0025961774,0.7627647,0.0031423704,0.092299,-0.64004767
1730745226029,-0.8974335,0.12842548,-9.855133,0.054519724,-0.0027488936,0.0025961774,0.7627647,0.0031423704,0.092299,-0.64004767
1730745226031,-1.0794954,-0.004527688,-9.798838,0.054519724,-0.0027488936,0.0025961774,0.7627647,0.0031423704,0.092299,-0.64004767
1730745226032,-1.205262,-0.22372067,-9.637137,0.054519724,-0.0027488936,0.0025961774,0.7627647,0.0031423704,0.092299,-0.64004767
1730745226033,-1.263953,-0.34709156,-9.380814,0.054519724,-0.0027488936,0.0025961774,0.7627647,0.0031423704,0.092299,-0.64004767
1730745226034,-1.263953,-0.34709156,-9.380814,0.03772093,0.0047342055,0.024740042,0.7627647,0.0031423704,0.092299,-0.64004767
1730745226035,-1.263953,-0.34709156,-9.380814,0.016035212,0.013439035,0.050549097,0.7627647,0.0031423704,0.092299,-0.64004767
1730745226037,-1.263953,-0.34709156,-9.380814,-0.0018325958,0.022296581,0.07880162,0.7627647,0.0031423704,0.092299,-0.64004767
1730745226038,-1.263953,-0.34709156,-9.380814,-0.009010263,0.030848695,0.10445796,0.7627647,0.0031423704,0.092299,-0.64004767
1730745226039,-1.263953,-0.34709156,-9.380814,-0.0076358155,0.032070424,0.12767084,0.7627647,0.0031423704,0.092299,-0.64004767
1730745226040,-1.263953,-0.34709156,-9.380814,0.0009162979,0.028252518,0.1459968,0.7627647,0.0031423704,0.092299,-0.64004767
1730745226041,-1.263953,-0.34709156,-9.380814,0.021685716,0.019394971,0.16294831,0.7627647,0.0031423704,0.092299,-0.64004767
1730745226043,-1.263953,-0.34709156,-9.380814,0.054367006,0.005497787,0.17256944,0.7627647,0.0031423704,0.092299,-0.64004767
1730745226047,-1.263953,-0.34709156,-9.380814,0.054367006,0.005497787,0.17256944,0.7628033,0.003340608,0.0921692,-0.6400194
1730745226047,-1.263953,-0.34709156,-9.380814,0.054367006,0.005497787,0.17256944,0.76299375,0.003473681,0.0922221,-0.639784
1730745226048,-1.263953,-0.34709156,-9.380814,0.054367006,0.005497787,0.17256944,0.7633388,0.0036086454,0.09237776,-0.63934904
1730745226048,-1.263953,-0.34709156,-9.380814,0.054367006,0.005497787,0.17256944,0.76381105,0.0038071196,0.09245236,-0.63877285
1730745226070,-1.1968775,-0.30996048,-9.249059,0.054367006,0.005497787,0.17256944,0.76381105,0.0038071196,0.09245236,-0.63877285
1730745226072,-1.1082422,-0.060823083,-9.1915655,0.054367006,0.005497787,0.17256944,0.76381105,0.0038071196,0.09245236,-0.63877285
1730745226073,-1.0471555,0.2553897,-9.239476,0.054367006,0.005497787,0.17256944,0.76381105,0.0038071196,0.09245236,-0.63877285
1730745226074,-1.0363755,0.45661604,-9.353265,0.054367006,0.005497787,0.17256944,0.76381105,0.0038071196,0.09245236,-0.63877285
1730745226075,-1.0363755,0.45661604,-9.353265,0.09193522,-0.010842858,0.17730364,0.76381105,0.0038071196,0.09245236,-0.63877285
1730745226076,-1.0363755,0.45661604,-9.353265,0.12705997,-0.023518313,0.17821993,0.76381105,0.0038071196,0.09245236,-0.63877285
1730745226077,-1.0363755,0.45661604,-9.353265,0.15974127,-0.03481932,0.17806722,0.76381105,0.0038071196,0.09245236,-0.63877285
1730745226078,-1.0363755,0.45661604,-9.353265,0.18753563,-0.038789943,0.1740966,0.76381105,0.0038071196,0.09245236,-0.63877285
1730745226079,-1.0363755,0.45661604,-9.353265,0.20937407,-0.03772093,0.17027868,0.76381105,0.0038071196,0.09245236,-0.63877285
1730745226080,-1.0363755,0.45661604,-9.353265,0.22036964,-0.03176499,0.17256944,0.76381105,0.0038071196,0.09245236,-0.63877285
1730745226081,-1.0363755,0.45661604,-9.353265,0.2228131,-0.023060163,0.17608191,0.76381105,0.0038071196,0.09245236,-0.63877285
1730745226082,-1.0363755,0.45661604,-9.353265,0.22052236,-0.010842858,0.1797471,0.76381105,0.0038071196,0.09245236,-0.63877285
1730745226083,-1.0363755,0.45661604,-9.353265,0.22052236,-0.010842858,0.1797471,0.76435834,0.0041586775,0.09224005,-0.63814646
1730745226083,-1.0363755,0.45661604,-9.353265,0.22052236,-0.010842858,0.1797471,0.7649343,0.0046952353,0.091705106,-0.6375293
1730745226084,-1.0363755,0.45661604,-9.353265,0.22052236,-0.010842858,0.1797471,0.7654972,0.0054187006,0.09095008,-0.63695586
1730745226084,-1.0363755,0.45661604,-9.353265,0.22052236,-0.010842858,0.1797471,0.76606226,0.0062720133,0.09014857,-0.6363825
1730745226110,-1.1106377,0.5728003,-9.391594,0.22052236,-0.010842858,0.1797471,0.76606226,0.0062720133,0.09014857,-0.6363825
1730745226112,-1.1477687,0.63987577,-9.399978,0.22052236,-0.010842858,0.1797471,0.76606226,0.0062720133,0.09014857,-0.6363825
1730745226113,-1.1477687,0.67940235,-9.372429,0.22052236,-0.010842858,0.1797471,0.76606226,0.0062720133,0.09014857,-0.6363825
1730745226114,-1.1190221,0.65904015,-9.419143,0.22052236,-0.010842858,0.1797471,0.76606226,0.0062720133,0.09014857,-0.6363825
1730745226115,-1.1190221,0.65904015,-9.419143,0.21212296,0.00290161,0.18707748,0.76606226,0.0062720133,0.09014857,-0.6363825
1730745226116,-1.1190221,0.65904015,-9.419143,0.19639318,0.01282817,0.19440787,0.76606226,0.0062720133,0.09014857,-0.6363825
1730745226117,-1.1190221,0.65904015,-9.419143,0.17715092,0.01786781,0.20189096,0.76606226,0.0062720133,0.09014857,-0.6363825
1730745226119,-1.1190221,0.65904015,-9.419143,0.15897769,0.019394971,0.20448714,0.76606226,0.0062720133,0.09014857,-0.6363825
1730745226120,-1.1190221,0.65904015,-9.419143,0.14080444,0.01572978,0.20341812,0.76606226,0.0062720133,0.09014857,-0.6363825
1730745226121,-1.1190221,0.65904015,-9.419143,0.12736541,0.012217305,0.20234911,0.76606226,0.0062720133,0.09014857,-0.6363825
1730745226122,-1.1190221,0.65904015,-9.419143,0.12003502,0.0061086523,0.20372356,0.76606226,0.0062720133,0.09014857,-0.6363825
1730745226123,-1.1190221,0.65904015,-9.419143,0.11759156,0,0.20265454,0.76606226,0.0062720133,0.09014857,-0.6363825
1730745226124,-1.1190221,0.65904015,-9.419143,0.11759156,0,0.20265454,0.7666423,0.0071948213,0.08944127,-0.6357737
1730745226124,-1.1190221,0.65904015,-9.419143,0.11759156,0,0.20265454,0.76726013,0.008078651,0.08889052,-0.63509464
1730745226125,-1.1190221,0.65904015,-9.419143,0.11759156,0,0.20265454,0.767894,0.00883912,0.0884626,-0.63437766
1730745226125,-1.1190221,0.65904015,-9.419143,0.11759156,0,0.20265454,0.7685325,0.009476806,0.08808872,-0.6336469
1730745226150,-1.0998577,0.6877868,-9.457471,0.11759156,0,0.20265454,0.7685325,0.009476806,0.08808872,-0.6336469
1730745226151,-1.0040356,0.7728289,-9.609589,0.11759156,0,0.20265454,0.7685325,0.009476806,0.08808872,-0.6336469
1730745226152,-0.9465424,0.84948653,-9.818002,0.11759156,0,0.20265454,0.7685325,0.009476806,0.08808872,-0.6336469
1730745226154,-0.9657068,0.8973975,-9.940175,0.11759156,0,0.20265454,0.7685325,0.009476806,0.08808872,-0.6336469
1730745226155,-0.9657068,0.8973975,-9.940175,0.121256754,-0.007483099,0.20387627,0.7685325,0.009476806,0.08808872,-0.6336469
1730745226156,-0.9657068,0.8973975,-9.940175,0.12599096,-0.01985312,0.20387627,0.7685325,0.009476806,0.08808872,-0.6336469
1730745226157,-0.9657068,0.8973975,-9.940175,0.13439035,-0.031001411,0.19776763,0.7685325,0.009476806,0.08808872,-0.6336469
1730745226158,-0.9657068,0.8973975,-9.940175,0.14630222,-0.044593163,0.19043724,0.7685325,0.009476806,0.08808872,-0.6336469
1730745226159,-0.9657068,0.8973975,-9.940175,0.15241088,-0.053297993,0.18570304,0.7685325,0.009476806,0.08808872,-0.6336469
1730745226160,-0.9657068,0.8973975,-9.940175,0.15347989,-0.058184914,0.18081611,0.7685325,0.009476806,0.08808872,-0.6336469
1730745226161,-0.9657068,0.8973975,-9.940175,0.14752395,-0.060628377,0.18448131,0.7685325,0.009476806,0.08808872,-0.6336469
1730745226162,-0.9657068,0.8973975,-9.940175,0.13652839,-0.06307184,0.18829921,0.7685325,0.009476806,0.08808872,-0.6336469
1730745226163,-0.9657068,0.8973975,-9.940175,0.13652839,-0.06307184,0.18829921,0.7691751,0.010054776,0.087683834,-0.63291395
1730745226163,-0.9657068,0.8973975,-9.940175,0.13652839,-0.06307184,0.18829921,0.7698156,0.010600081,0.08716536,-0.6321976
1730745226164,-0.9657068,0.8973975,-9.940175,0.13652839,-0.06307184,0.18829921,0.7704291,0.011136674,0.0865031,-0.63153183
1730745226164,-0.9657068,0.8973975,-9.940175,0.13652839,-0.06307184,0.18829921,0.77103096,0.011643421,0.0857945,-0.63088423
1730745226190,-1.01242,0.90697974,-9.940175,0.13652839,-0.06307184,0.18829921,0.77103096,0.011643421,0.0857945,-0.63088423
1730745226191,-1.0327822,0.7536645,-9.808419,0.13652839,-0.06307184,0.18829921,0.77103096,0.011643421,0.0857945,-0.63088423
1730745226192,-0.9225868,0.42667162,-9.600007,0.13652839,-0.06307184,0.18829921,0.77103096,0.011643421,0.0857945,-0.63088423
1730745226195,-0.8567091,0.32965183,-9.447889,0.13652839,-0.06307184,0.18829921,0.77103096,0.011643421,0.0857945,-0.63088423
1730745226196,-0.8567091,0.32965183,-9.447889,0.12064589,-0.070249505,0.18616119,0.77103096,0.011643421,0.0857945,-0.63088423
1730745226197,-0.8567091,0.32965183,-9.447889,0.10476339,-0.08246681,0.18020524,0.77103096,0.011643421,0.0857945,-0.63088423
1730745226199,-0.8567091,0.32965183,-9.447889,0.09743301,-0.09712757,0.17180584,0.77103096,0.011643421,0.0857945,-0.63088423
1730745226200,-0.8567091,0.32965183,-9.447889,0.09605856,-0.11438452,0.1647809,0.77103096,0.011643421,0.0857945,-0.63088423
1730745226201,-0.8567091,0.32965183,-9.447889,0.10323623,-0.13545936,0.15378532,0.77103096,0.011643421,0.0857945,-0.63088423
1730745226202,-0.8567091,0.32965183,-9.447889,0.12232576,-0.1601994,0.1366811,0.77103096,0.011643421,0.0857945,-0.63088423
1730745226203,-0.8567091,0.32965183,-9.447889,0.15958855,-0.1826487,0.10842858,0.77103096,0.011643421,0.0857945,-0.63088423
1730745226203,-0.8567091,0.32965183,-9.447889,0.21395555,-0.20280726,0.07147124,0.77103096,0.011643421,0.0857945,-0.63088423
1730745226204,-0.8567091,0.32965183,-9.447889,0.21395555,-0.20280726,0.07147124,0.7716403,0.012046827,0.085117914,-0.63022316
1730745226205,-0.8567091,0.32965183,-9.447889,0.21395555,-0.20280726,0.07147124,0.7722296,0.012273132,0.08443786,-0.62958807
1730745226205,-0.8567091,0.32965183,-9.447889,0.21395555,-0.20280726,0.07147124,0.7727803,0.012359624,0.0836369,-0.62901735
1730745226206,-0.8567091,0.32965183,-9.447889,0.21395555,-0.20280726,0.07147124,0.7732294,0.012439627,0.08253643,-0.62860894
1730745226229,-0.92857575,0.6374802,-9.324518,0.21395555,-0.20280726,0.07147124,0.7732294,0.012439627,0.08253643,-0.62860894
1730745226231,-0.98247564,0.9177598,-9.088556,0.21395555,-0.20280726,0.07147124,0.7732294,0.012439627,0.08253643,-0.62860894
1730745226233,-0.9261801,0.8973975,-9.183181,0.21395555,-0.20280726,0.07147124,0.7732294,0.012439627,0.08253643,-0.62860894
1730745226234,-0.70698714,0.90458417,-9.64672,0.21395555,-0.20280726,0.07147124,0.7732294,0.012439627,0.08253643,-0.62860894
1730745226235,-0.70698714,0.90458417,-9.64672,0.27550024,-0.22311853,0.03436117,0.7732294,0.012439627,0.08253643,-0.62860894
1730745226236,-0.70698714,0.90458417,-9.64672,0.3297145,-0.24938573,-0.0025961774,0.7732294,0.012439627,0.08253643,-0.62860894
1730745226237,-0.70698714,0.90458417,-9.64672,0.3717115,-0.28053987,-0.036957346,0.7732294,0.012439627,0.08253643,-0.62860894
1730745226238,-0.70698714,0.90458417,-9.64672,0.39568797,-0.31398472,-0.058948494,0.7732294,0.012439627,0.08253643,-0.62860894
1730745226239,-0.70698714,0.90458417,-9.64672,0.40866885,-0.34498614,-0.077121735,0.7732294,0.012439627,0.08253643,-0.62860894
1730745226240,-0.70698714,0.90458417,-9.64672,0.42058071,-0.37216964,-0.09407325,0.7732294,0.012439627,0.08253643,-0.62860894
1730745226241,-0.70698714,0.90458417,-9.64672,0.44104472,-0.39202276,-0.118507855,0.7732294,0.012439627,0.08253643,-0.62860894
1730745226243,-0.70698714,0.90458417,-9.64672,0.47586402,-0.3923282,-0.15561792,0.7732294,0.012439627,0.08253643,-0.62860894
1730745226243,-0.70698714,0.90458417,-9.64672,0.47586402,-0.3923282,-0.15561792,0.7734736,0.01275673,0.0809607,-0.62850714
1730745226244,-0.70698714,0.90458417,-9.64672,0.47586402,-0.3923282,-0.15561792,0.7735116,0.0132811265,0.07886184,-0.62871647
1730745226245,-0.70698714,0.90458417,-9.64672,0.47586402,-0.3923282,-0.15561792,0.77341217,0.013794308,0.07635483,-0.62913686
1730745226245,-0.70698714,0.90458417,-9.64672,0.47586402,-0.3923282,-0.15561792,0.7731951,0.014254254,0.07353904,-0.6297288
1730745226270,-0.6578784,1.1345571,-9.713796,0.47586402,-0.3923282,-0.15561792,0.7731951,0.014254254,0.07353904,-0.6297288
1730745226272,-0.4494654,1.7370384,-9.154434,0.47586402,-0.3923282,-0.15561792,0.7731951,0.014254254,0.07353904,-0.6297288
1730745226273,-0.2973479,1.659183,-8.615435,0.47586402,-0.3923282,-0.15561792,0.7731951,0.014254254,0.07353904,-0.6297288
1730745226274,-0.15121925,1.0626906,-8.169863,0.47586402,-0.3923282,-0.15561792,0.7731951,0.014254254,0.07353904,-0.6297288
1730745226275,-0.15121925,1.0626906,-8.169863,0.46120325,-0.38347065,-0.183565,0.7731951,0.014254254,0.07353904,-0.6297288
1730745226277,-0.15121925,1.0626906,-8.169863,0.35353827,-0.3578143,-0.16814066,0.7731951,0.014254254,0.07353904,-0.6297288
1730745226278,-0.15121925,1.0626906,-8.169863,0.25335637,-0.29168814,-0.15317446,0.7731951,0.014254254,0.07353904,-0.6297288
1730745226279,-0.15121925,1.0626906,-8.169863,0.15439619,-0.21059579,-0.14935656,0.7731951,0.014254254,0.07353904,-0.6297288
1730745226280,-0.15121925,1.0626906,-8.169863,-0.023365596,-0.14614952,-0.113926366,0.7731951,0.014254254,0.07353904,-0.6297288
1730745226281,-0.15121925,1.0626906,-8.169863,-0.18860464,-0.041233405,-0.063224554,0.7731951,0.014254254,0.07353904,-0.6297288
1730745226282,-0.15121925,1.0626906,-8.169863,-0.29840767,0.04230242,-0.032375857,0.7731951,0.014254254,0.07353904,-0.6297288
1730745226283,-0.15121925,1.0626906,-8.169863,-0.36942077,0.12308934,-0.006872234,0.7731951,0.014254254,0.07353904,-0.6297288
1730745226284,-0.15121925,1.0626906,-8.169863,-0.36942077,0.12308934,-0.006872234,0.77277434,0.014794327,0.07059579,-0.6305689
